t wx wy wz ax ay az yaw pitch roll

0.0 0.00397667 -0.021776 -0.00144271 -0.405882 -0.354701 9.88024 -8.10829e-10 1.67752e-09 -3.57195e-10
0.001 -0.0145742 -0.0145497 0.00181785 -0.166699 -0.185985 10.0295 -8.13101e-10 1.69286e-09 -2.45243e-10
0.002 -0.00497407 0.00149822 -0.00453042 -0.0784564 -0.0592624 9.81185 -8.15333e-10 1.70759e-09 -1.32095e-10
0.003 -0.00723468 0.0155287 0.00802072 -0.0699759 -0.0105974 9.97154 -8.17521e-10 1.72165e-09 -1.80428e-11
0.004 0.00160136 0.0156483 -0.00529528 -0.320752 -0.0573474 9.56629 -8.19664e-10 1.73494e-09 9.66343e-11
0.005 -0.0134417 -0.00999947 -0.0093193 -0.438612 -0.0931677 10.228 -8.21758e-10 1.74738e-09 2.11689e-10
0.006 -0.0136857 0.0160468 -0.000254296 -0.381366 -0.353733 9.72522 -8.23801e-10 1.75893e-09 3.26885e-10
0.007 -0.00775936 -0.0139275 0.00758324 -0.0730339 -0.0224294 9.77371 -8.25791e-10 1.76955e-09 4.41985e-10
0.008 -0.00328751 0.00842583 -0.0042735 -0.251475 -0.185461 10.0243 -8.27725e-10 1.77921e-09 5.56783e-10
0.009 -0.00938107 0.00744065 -0.0102484 0.0348502 0.105914 9.9954 -8.29601e-10 1.78786e-09 6.7107e-10
0.011 -0.00843029 -0.000289088 -0.0144146 -0.167581 -0.0532981 10.0528 -8.33171e-10 1.80204e-09 8.97392e-10
0.012 0.000390953 0.0331488 -0.00983371 -0.158304 -0.318997 9.73421 -8.34861e-10 1.80748e-09 1.00909e-09
0.013 -0.00384824 0.00622745 -0.00397945 -0.218805 -0.0786744 9.77708 -8.36485e-10 1.81179e-09 1.1196e-09
0.014 -0.0158441 0.0142968 0.000445761 -0.198959 -0.413174 10.1671 -8.38041e-10 1.81493e-09 1.22878e-09
0.015 -0.000231372 0.0106094 -0.0251974 -0.345863 0.00583737 10.005 -8.39528e-10 1.81686e-09 1.33651e-09
0.016 -0.0108924 0.0171092 0.003928 -0.1548 -0.161591 9.86482 -8.40943e-10 1.81756e-09 1.44264e-09
0.017 0.0108706 0.000576393 -0.00885222 0.00201348 0.027922 9.94661 -8.42291e-10 1.81708e-09 1.54691e-09
0.018 0.00605145 0.00494309 0.0176727 -0.100731 0.0997165 9.88503 -8.43572e-10 1.81546e-09 1.64903e-09
0.019 0.000744492 0.0104806 0.0167158 -0.196296 -0.0178268 9.94254 -8.44791e-10 1.81274e-09 1.74875e-09
0.02 0.00143478 0.0180292 -0.00145586 -0.129505 -0.133809 9.90351 -8.45949e-10 1.80898e-09 1.84582e-09
0.021 -0.020081 -0.00328059 -0.0159346 -0.549061 -0.0341303 9.54055 -8.47048e-10 1.8042e-09 1.94e-09
0.022 -0.00851545 0.0305131 0.0170553 -0.381997 -0.258053 10.0216 -8.48092e-10 1.7984e-09 2.03107e-09
0.023 -0.0121199 -0.0081644 -0.022407 -0.454099 -0.113683 9.83464 -8.49082e-10 1.79157e-09 2.11881e-09
0.024 0.00802047 0.00196334 -0.0261844 -0.128035 -0.232273 9.63886 -8.5002e-10 1.78366e-09 2.203e-09
0.025 0.00291404 0.010432 -0.00753043 -0.142751 -0.176432 9.57558 -8.50908e-10 1.77469e-09 2.28344e-09
0.026 0.00221717 0.00650157 -0.00507361 -0.366105 -0.281022 10.034 -8.51748e-10 1.76478e-09 2.35994e-09
0.027 -0.0199033 -0.00211813 -0.00275231 -0.00839986 -0.21999 9.88211 -8.52542e-10 1.75409e-09 2.43231e-09
0.028 -0.00356962 0.0164824 -0.0047435 -0.262507 -0.161836 10.1081 -8.53292e-10 1.7428e-09 2.50042e-09
0.029 -0.00225319 -0.0047425 0.00261126 -0.242908 -0.247423 9.80093 -8.54e-10 1.73099e-09 2.5641e-09
0.03 -0.00534459 -0.00115599 0.000397407 -0.355306 -0.204503 9.95662 -8.54668e-10 1.7187e-09 2.62318e-09
0.031 -0.0133882 0.00876757 -0.000498859 -0.25047 -0.0164409 9.94208 -8.55296e-10 1.70593e-09 2.67753e-09
0.033 0.00274059 -0.000682313 0.0379957 0.14228 -0.0744128 10.0148 -8.56443e-10 1.67896e-09 2.7714e-09
0.034 0.00193971 0.00878709 0.00434102 -0.206055 -0.356375 9.83286 -8.56963e-10 1.66477e-09 2.81065e-09
0.035 -0.0111594 -0.00310023 -0.00774755 -0.131306 -0.325953 9.78954 -8.57451e-10 1.65011e-09 2.8446e-09
0.036 0.00425786 0.0116291 0.00709435 -0.266051 -0.252774 9.97447 -8.57906e-10 1.63498e-09 2.87314e-09
0.037 -0.0144797 0.00368492 -0.00658471 -0.0282599 -0.349374 9.96601 -8.58331e-10 1.6194e-09 2.89615e-09
0.038 0.00587311 0.00492961 0.0017098 -0.13002 -0.140316 10.0451 -8.58727e-10 1.60337e-09 2.91351e-09
0.039 -0.0198707 -0.00453593 -0.00077304 -0.328479 -0.272566 9.77594 -8.59094e-10 1.58689e-09 2.92513e-09
0.04 -0.0036013 0.000221857 0.00876311 -0.34056 -0.124296 9.67845 -8.59434e-10 1.56998e-09 2.93091e-09
0.041 -0.0080151 0.00286437 -0.00513977 -0.28039 -0.0407251 9.9002 -8.59748e-10 1.55264e-09 2.93074e-09
0.042 0.000956114 0.000284855 -0.0115649 -0.0718642 -0.0648025 9.80903 -8.60036e-10 1.5349e-09 2.92455e-09
0.043 -0.00899841 0.023972 -0.0024363 -0.19013 -0.13361 9.97701 -8.60301e-10 1.51675e-09 2.91224e-09
0.044 -0.0202635 0.029608 -0.0118085 -0.317418 -0.101688 9.84301 -8.60543e-10 1.49821e-09 2.89373e-09
0.045 -0.0120989 1.98414e-06 0.000185705 -0.257496 -0.185417 9.75793 -8.60762e-10 1.4793e-09 2.86896e-09
0.046 -0.00736563 0.00808704 0.0102363 -0.30393 -0.0849073 9.79718 -8.6096e-10 1.46005e-09 2.83784e-09
0.047 0.00309025 -0.00631507 0.00678119 -0.236682 -0.220001 9.78116 -8.61137e-10 1.44049e-09 2.80029e-09
0.048 0.00527496 0.00123423 0.0145124 -0.43144 -0.00625712 9.5695 -8.61295e-10 1.42066e-09 2.75626e-09
0.049 0.00167441 0.0177231 -0.0162332 -0.122622 -0.0894489 9.7191 -8.61434e-10 1.40061e-09 2.70566e-09
0.05 0.00313803 0.0257237 -0.0158015 -0.176256 -0.235295 9.93163 -8.61554e-10 1.3803e-09 2.64844e-09
0.051 -0.00430844 0.00287383 -0.00117997 -0.117046 -0.0470822 9.93402 -8.61657e-10 1.35972e-09 2.58455e-09
0.052 -0.00242244 0.00097105 0.0105377 -0.45466 -0.367919 9.91022 -8.61744e-10 1.33883e-09 2.51393e-09
0.053 0.0173543 0.0275425 0.00426562 -0.282975 -0.194658 10.0554 -8.61814e-10 1.31763e-09 2.43655e-09
0.054 0.014529 0.00422613 0.0117832 0.00712362 -0.207963 9.94781 -8.61869e-10 1.29615e-09 2.35236e-09
0.055 0.0112032 0.00531477 0.00321939 -0.266915 -0.137032 9.50955 -8.6191e-10 1.2744e-09 2.26129e-09
0.056 0.00656388 0.00181477 0.0166754 -0.227488 -0.409949 9.98768 -8.61931e-10 1.25249e-09 2.16404e-09
0.058 -0.0120768 -0.00575074 0.0087399 -0.207873 -0.132551 9.8994 -8.61908e-10 1.20851e-09 1.95356e-09
0.061 0.0107792 0.0189743 -0.00623463 -0.300651 -0.235907 9.91935 -8.61661e-10 1.14349e-09 1.60633e-09
0.062 0.0161421 -0.00197573 -0.00530796 -0.395061 0.056595 9.72149 -8.61511e-10 1.12237e-09 1.48418e-09
0.063 -0.0177379 0.00607483 -0.00852539 -0.122536 -0.160964 9.83946 -8.61322e-10 1.10165e-09 1.35955e-09
0.064 0.00163645 0.0122657 -0.0105912 -0.286179 -0.401854 9.55556 -8.61092e-10 1.08139e-09 1.23285e-09
0.065 -0.0248797 0.00252612 -0.00348997 -0.311233 -0.0224746 9.8091 -8.60818e-10 1.06166e-09 1.10445e-09
0.066 0.00338731 0.0132047 0.0115755 -0.000438842 -0.243048 10.0225 -8.60498e-10 1.04251e-09 9.74689e-10
0.067 -0.000637976 -0.0066776 0.000916794 -0.357737 -0.0208548 9.97382 -8.60129e-10 1.02401e-09 8.43895e-10
0.068 -0.0107489 0.0294495 -7.43124e-06 -0.228485 -0.0930594 9.74404 -8.5971e-10 1.0062e-09 7.12371e-10
0.069 -0.00206854 0.00754806 0.00281012 -0.238415 -0.20862 9.76129 -8.59238e-10 9.89114e-10 5.80403e-10
0.07 -0.0138623 0.0119265 -0.00349304 0.00963314 -0.3012 9.78046 -8.58711e-10 9.7275e-10 4.48253e-10
0.071 -0.00849642 0.00461076 -0.00509026 -0.146498 -0.143721 9.93415 -8.58127e-10 9.57073e-10 3.16161e-10
0.072 -0.00487193 0.00192346 -0.0081507 -0.0533648 -0.0986314 9.87174 -8.57483e-10 9.42086e-10 1.8436e-10
0.073 0.011568 0.0044531 -0.00874304 -0.135923 -0.0506992 9.73855 -8.56778e-10 9.27876e-10 5.3057e-11
0.074 0.023545 0.0282803 0.00259708 -0.345434 -0.148647 9.81886 -8.5601e-10 9.14611e-10 -7.75261e-11
0.075 0.0106851 0.0128897 -0.00859992 -0.212599 -0.2024 9.98154 -8.55177e-10 9.02474e-10 -2.07166e-10
0.077 -0.0272085 0.00854189 0.00329368 -0.257929 -0.383777 9.83746 -8.53311e-10 8.82026e-10 -4.62922e-10
0.078 -0.00536284 0.0274976 0.00350643 -0.136418 -0.185733 9.80786 -8.52274e-10 8.7379e-10 -5.88696e-10
0.079 0.0220213 -0.00266732 -0.0396634 -0.15254 -0.185055 9.90266 -8.51167e-10 8.66896e-10 -7.1285e-10
0.08 0.0161999 0.00950953 0.0064865 -0.0480089 -0.333672 10.0356 -8.49986e-10 8.61348e-10 -8.35257e-10
0.081 0.00717747 0.00441837 0.0106664 -0.363763 0.0172438 9.93963 -8.48736e-10 8.5708e-10 -9.55615e-10
0.082 0.00125162 0.0245965 0.00472494 -0.130577 -0.229859 9.78354 -8.47419e-10 8.54026e-10 -1.07366e-09
0.083 -0.00173768 0.00292776 0.00885926 -0.478361 -0.230153 9.79146 -8.46038e-10 8.52125e-10 -1.18913e-09
0.084 0.0219866 0.0191339 -0.0128917 -0.366478 -0.274644 9.73078 -8.44595e-10 8.5132e-10 -1.30177e-09
0.085 0.00654372 0.00194393 0.0027064 -0.237527 -0.153604 9.85613 -8.43093e-10 8.51558e-10 -1.41134e-09
0.086 8.48098e-05 0.0196253 -0.0148914 -0.252213 0.00850622 9.90078 -8.41534e-10 8.52791e-10 -1.51763e-09
0.087 0.0110653 0.0187259 -0.00159412 -0.203089 -0.345253 9.86711 -8.39921e-10 8.5497e-10 -1.62041e-09
0.088 0.0234425 0.00215136 -0.00389074 -0.0421843 -0.191383 9.84088 -8.38255e-10 8.58055e-10 -1.71948e-09
0.089 -0.00026855 0.00824772 -0.00762282 -0.568331 -0.381069 9.71964 -8.36539e-10 8.62003e-10 -1.81464e-09
0.09 -0.00319129 0.0145472 -0.00730753 -0.276054 -0.00392333 9.95246 -8.34775e-10 8.66779e-10 -1.90572e-09
0.091 -0.0079138 0.0110292 0.00132725 -0.0361015 0.108929 9.81359 -8.32965e-10 8.72345e-10 -1.99253e-09
0.092 -0.00573216 0.00807604 -0.00995576 -0.186702 -0.0938842 10.0158 -8.31111e-10 8.78672e-10 -2.07491e-09
0.093 -0.0113639 -0.00942957 0.0103939 -0.0327144 -0.298707 9.85413 -8.29213e-10 8.85736e-10 -2.15269e-09
0.094 -0.00821608 0.0153215 -0.00586119 -0.286492 0.0329051 10.0993 -8.27275e-10 8.93533e-10 -2.22574e-09
0.095 0.0158648 0.0323433 0.000488049 -0.298394 -0.28972 9.88695 -8.25298e-10 9.0207e-10 -2.29391e-09
0.096 -0.0143947 0.00873183 0.00672582 -0.308731 0.00355668 9.91061 -8.23283e-10 9.11342e-10 -2.35708e-09
0.097 0.00388208 0.0174579 0.00386744 -0.3956 -0.100804 9.87923 -8.21233e-10 9.21312e-10 -2.41511e-09
0.098 0.0121628 -0.000685535 -0.010513 -0.370953 -0.236469 9.95404 -8.19147e-10 9.31917e-10 -2.46788e-09
0.099 -0.0171009 -0.00533774 -0.0121031 -0.313916 -0.162283 9.95372 -8.17028e-10 9.43093e-10 -2.51525e-09
0.1 -0.00150828 -0.0019971 -0.00762896 -0.283184 0.0988135 9.76216 -8.14886e-10 9.54659e-10 -2.55742e-09
0.101 -0.00873726 -0.0045826 -0.00157837 -0.293871 -0.0624269 9.86036 -8.12727e-10 9.66471e-10 -2.59455e-09
0.102 -0.0110416 0.00512348 -0.00320628 -0.229687 -0.276861 9.78643 -8.10562e-10 9.78395e-10 -2.62679e-09
0.103 0.00998841 0.0165026 0.0070516 -0.076092 0.0184056 9.68988 -8.08396e-10 9.9031e-10 -2.6543e-09
0.104 -0.00539212 0.00221053 0.00373737 -0.338257 -0.126849 9.86334 -8.06237e-10 1.0021e-09 -2.67719e-09
0.105 0.0132369 -0.000717022 0.0046518 -0.185302 -0.124773 9.86409 -8.04092e-10 1.01365e-09 -2.69558e-09
0.106 0.00194278 -0.0055119 -0.000899784 -0.269336 -0.344577 10.0575 -8.01966e-10 1.02485e-09 -2.70958e-09
0.107 -0.015989 0.00136784 -0.00845672 -0.207588 -0.0179465 9.77642 -7.99866e-10 1.03562e-09 -2.71929e-09
0.108 -0.00829656 0.00761469 -0.0154753 -0.0939178 -0.0659734 9.83625 -7.97795e-10 1.04586e-09 -2.72478e-09
0.109 -0.0223595 0.00672825 -0.00203822 -0.214508 0.0484049 9.79947 -7.9576e-10 1.05548e-09 -2.72613e-09
0.11 -0.00939972 -0.00320502 -0.00670534 -0.225626 -0.243972 9.83995 -7.93765e-10 1.0644e-09 -2.72341e-09
0.112 0.00377617 -0.00238988 -0.00100722 -0.312752 -0.424882 9.79914 -7.89911e-10 1.07987e-09 -2.70598e-09
0.113 -0.0122725 0.00649108 -0.0020135 -0.20524 -0.192909 9.59226 -7.8806e-10 1.08627e-09 -2.69138e-09
0.114 -0.018038 0.00409604 -0.0084008 -0.154173 -0.129653 9.78517 -7.86264e-10 1.09171e-09 -2.6729e-09
0.115 0.0080771 0.0112113 -0.000916985 -0.150792 -0.274284 9.77866 -7.84527e-10 1.09612e-09 -2.65059e-09
0.116 0.00708655 0.00509826 0.0159869 -0.0652217 -0.114614 9.86056 -7.82852e-10 1.09945e-09 -2.62447e-09
0.117 -0.0139969 -0.0175424 -0.00174742 -0.403734 0.014616 10.1029 -7.81241e-10 1.1016e-09 -2.59457e-09
0.118 0.0013617 0.0139862 0.00305367 0.0169222 -0.187667 10.172 -7.79698e-10 1.10244e-09 -2.56093e-09
0.12 -0.00132244 0.0173664 0.00381695 -0.303203 -0.234048 10.0948 -7.76822e-10 1.09986e-09 -2.48252e-09
0.121 -0.0091203 -0.00617019 -0.0191527 -0.349073 -0.144344 9.9548 -7.75494e-10 1.09647e-09 -2.43778e-09
0.122 -0.0364905 0.0364971 0.00322013 -0.415972 -0.161856 9.93111 -7.74242e-10 1.09181e-09 -2.38936e-09
0.123 0.000758877 0.0133661 -0.000619265 -0.201048 -0.214645 9.77413 -7.73069e-10 1.08597e-09 -2.33727e-09
0.124 -0.010267 -0.00559104 -0.00979244 0.0642872 -0.0246881 9.70118 -7.71969e-10 1.07909e-09 -2.28175e-09
0.125 0.00680541 0.00123696 0.0203393 -0.222116 -0.0424326 9.97928 -7.70935e-10 1.07127e-09 -2.2231e-09
0.126 -0.00648835 -0.00735495 0.00221847 -0.286532 -0.100376 9.91679 -7.69963e-10 1.06257e-09 -2.16154e-09
0.127 0.0056687 0.00654602 0.013078 -0.411025 -0.1802 9.58727 -7.69048e-10 1.05305e-09 -2.09729e-09
0.128 0.00382766 0.00631354 -0.00232896 -0.122698 -0.327306 9.88408 -7.68186e-10 1.04276e-09 -2.03059e-09
0.129 0.0159554 -0.00555086 -0.0172261 -0.188569 -0.28232 9.83456 -7.67372e-10 1.03175e-09 -1.9616e-09
0.13 -0.00707714 0.00391117 0.000989201 -0.331701 -0.237234 9.77485 -7.66603e-10 1.02006e-09 -1.8905e-09
0.131 0.0165776 0.00768168 -0.00491803 -0.237337 -0.2261 9.81219 -7.65876e-10 1.00774e-09 -1.81747e-09
0.132 -0.0106865 0.000405606 0.0146468 -0.206668 -0.388519 9.67674 -7.65186e-10 9.94822e-10 -1.74265e-09
0.133 -0.00665506 0.0111222 -0.0187008 -0.261709 -0.0104994 9.90632 -7.64532e-10 9.81351e-10 -1.66618e-09
0.134 -0.00991407 0.0141608 -0.00893414 -0.191064 -0.123848 10.0356 -7.63911e-10 9.67361e-10 -1.58819e-09
0.135 -0.00652097 0.00499037 0.00804304 -0.321495 -0.102631 9.83612 -7.63319e-10 9.52885e-10 -1.5088e-09
0.136 0.00916475 0.00932193 -0.00177646 -0.248601 -0.117042 9.7555 -7.62755e-10 9.37956e-10 -1.42813e-09
0.137 0.00731267 0.00919426 0.0129191 -0.202892 -0.0649343 9.84737 -7.62217e-10 9.22604e-10 -1.34627e-09
0.138 -0.0102035 0.0237554 -0.0154899 -0.181885 -0.261161 9.88381 -7.61703e-10 9.06857e-10 -1.26332e-09
0.139 -0.00472521 0.00197741 0.0120846 -0.258313 -0.254826 9.83892 -7.6121e-10 8.90744e-10 -1.17937e-09
0.14 -0.00494083 0.0163939 -0.00600985 -0.230632 -0.154922 9.69683 -7.60737e-10 8.74295e-10 -1.09449e-09
0.141 -0.000687811 0.0140521 -0.00323237 -0.256692 -0.183396 9.8532 -7.60288e-10 8.5763e-10 -1.00893e-09
0.142 0.00565931 0.00347779 -0.00497988 -0.21364 -0.258445 9.76153 -7.59864e-10 8.40877e-10 -9.22918e-10
0.143 -0.00273166 0.0286593 0.00546297 -0.15673 -0.244768 9.84478 -7.59468e-10 8.24158e-10 -8.36687e-10
0.144 0.000474806 0.00986025 0.00571112 -0.368185 -0.020214 9.67619 -7.59104e-10 8.07562e-10 -7.50441e-10
0.145 -0.00191104 -0.00241396 0.00773563 -0.42404 -0.102956 9.64848 -7.58774e-10 7.91141e-10 -6.64373e-10
0.146 0.0107065 0.00505068 0.0190264 -0.183761 -0.236894 10.0768 -7.5848e-10 7.74931e-10 -5.78654e-10
0.147 0.00706543 0.00210931 -0.00156275 -0.34058 -0.183457 9.79154 -7.58226e-10 7.58979e-10 -4.93459e-10
0.148 0.00395883 0.0219708 0.00948321 -0.272777 -0.0885952 10.0165 -7.58012e-10 7.43354e-10 -4.08944e-10
0.149 -0.00133566 0.00427017 0.00313128 -0.208322 -0.29405 9.88526 -7.57842e-10 7.28131e-10 -3.25265e-10
0.15 -0.00175215 0.00898955 -0.0125009 -0.254471 0.0898606 9.70179 -7.57718e-10 7.13382e-10 -2.42578e-10
0.151 0.00873644 -0.0119228 -0.0238851 -0.188734 -0.0257583 9.78751 -7.57643e-10 6.99177e-10 -1.61028e-10
0.152 0.0171228 -0.0108657 0.0237333 -0.0782826 -0.116899 9.92699 -7.57617e-10 6.85576e-10 -8.07493e-11
0.153 -0.0199064 0.0111185 0.00424352 -0.417895 -0.142943 9.97701 -7.57645e-10 6.72638e-10 -1.8692e-12
0.154 -0.0116249 0.0117844 -0.00719564 -0.306176 -0.249653 10.0221 -7.57727e-10 6.6042e-10 7.54867e-11
0.155 0.0201719 0.0105499 0.000375653 -0.0641194 -0.191875 9.96911 -7.57865e-10 6.48972e-10 1.51204e-10
0.156 -0.00735176 0.00741421 -0.00409664 -0.222466 0.00323556 9.84909 -7.58062e-10 6.38345e-10 2.25171e-10
0.157 0.0108157 0.00587751 0.00157207 -0.359114 -0.0831618 9.84073 -7.58319e-10 6.28587e-10 2.97283e-10
0.158 -0.00121135 0.00134498 0.011898 -0.247239 -0.230384 9.90568 -7.58638e-10 6.19742e-10 3.67437e-10
0.159 -0.00707055 0.00712811 -0.0250049 -0.0122593 -0.0913605 9.83158 -7.59017e-10 6.11778e-10 4.35388e-10
0.16 0.0021542 -6.78395e-05 -0.0030421 -0.460368 -0.129292 9.7095 -7.59454e-10 6.04663e-10 5.00896e-10
0.161 -0.0161765 0.012212 -0.00302346 -0.302621 -0.153607 10.0258 -7.59944e-10 5.98366e-10 5.63734e-10
0.162 -0.00443934 0.0176318 -0.00604977 -0.316394 -0.0115771 9.91636 -7.60487e-10 5.92856e-10 6.23683e-10
0.163 0.00578752 -0.000847001 -0.00470256 -0.213999 -0.0472755 9.89093 -7.61081e-10 5.881e-10 6.80533e-10
0.164 -0.00462775 -0.0129555 -0.00464959 -0.335793 -0.340957 10.1155 -7.61722e-10 5.84039e-10 7.34082e-10
0.165 -0.0186754 0.0104082 0.00269383 -0.134436 -0.119867 9.7604 -7.62409e-10 5.80579e-10 7.8413e-10
0.166 -0.0222636 -0.000438893 -0.0103905 -0.374041 -0.255174 9.6659 -7.6314e-10 5.77618e-10 8.30479e-10
0.168 0.00492193 0.00209303 0.00451581 -0.339522 -0.0869206 9.69485 -7.64727e-10 5.73095e-10 9.1136e-10
0.169 -0.0118629 -0.0106541 0.0113841 -0.226724 -0.0261828 10.0951 -7.65579e-10 5.71693e-10 9.45553e-10
0.17 -0.00813765 0.0054468 -0.00469471 -0.0192258 -0.2069 9.86018 -7.66468e-10 5.71014e-10 9.75401e-10
0.171 0.0183916 0.0181026 0.000936364 -0.124071 -0.405017 9.53906 -7.67393e-10 5.71108e-10 1.00073e-09
0.172 0.0137911 0.0117945 -0.00766397 -0.224659 -0.298231 9.82939 -7.68353e-10 5.71961e-10 1.02142e-09
0.173 -0.0089592 0.0143871 -0.0224024 -0.260211 -0.379129 9.95071 -7.69346e-10 5.73531e-10 1.0373e-09
0.174 0.00669204 0.0133593 0.000213327 -0.16028 -0.0861552 9.78655 -7.7037e-10 5.75776e-10 1.04825e-09
0.175 0.00090413 0.0169722 -0.00854375 -0.288016 -0.0933823 9.83872 -7.71424e-10 5.78651e-10 1.05415e-09
0.176 0.00579765 0.0113982 0.00156778 -0.173643 -0.271799 9.96755 -7.72507e-10 5.82116e-10 1.05484e-09
0.177 0.0140448 -0.00254811 0.0036877 -0.30358 -0.252974 9.87444 -7.73619e-10 5.86134e-10 1.05023e-09
0.178 0.00363584 -0.00539552 -0.00874673 -0.370112 -0.0682368 9.81489 -7.74756e-10 5.9067e-10 1.0402e-09
0.179 0.0117836 0.0231315 0.0165485 -0.118682 -0.104592 9.99694 -7.7592e-10 5.95692e-10 1.02463e-09
0.18 -0.0119236 0.0100406 -0.00394018 -0.203529 -0.156269 9.54672 -7.77107e-10 6.01155e-10 1.00395e-09
0.181 0.0161977 0.0090653 -0.00939004 0.0202422 -0.364088 9.9254 -7.78316e-10 6.07018e-10 9.78556e-10
0.182 0.0310202 0.00822694 -0.0224312 -0.153713 -0.314629 9.8466 -7.79545e-10 6.13246e-10 9.48808e-10
0.183 0.00641271 -0.0111076 0.000650475 -0.198157 -0.147835 9.87523 -7.80792e-10 6.19804e-10 9.15045e-10
0.184 -0.00657641 0.00383403 0.000287892 -0.101402 -0.135229 9.95766 -7.82056e-10 6.26663e-10 8.77576e-10
0.185 -0.00687222 0.0173547 0.0144489 -0.0571457 -0.204955 9.8118 -7.83337e-10 6.33798e-10 8.36689e-10
0.186 -0.00431457 0.00902712 -0.0227278 -0.116401 -0.312347 9.95238 -7.84631e-10 6.41183e-10 7.92648e-10
0.187 0.018559 0.0116325 -0.0192429 -0.147981 0.0791583 9.82409 -7.85939e-10 6.48802e-10 7.45699e-10
0.188 -0.00243281 -0.0103783 0.0117705 -0.224675 0.103063 9.85379 -7.8726e-10 6.56646e-10 6.96067e-10
0.189 -0.00467441 0.00998781 -0.00267819 -0.22921 -0.132028 9.55773 -7.88592e-10 6.64729e-10 6.43955e-10
0.19 0.00347605 0.0166374 0.00222208 -0.130682 -0.117159 9.77155 -7.89934e-10 6.73067e-10 5.89551e-10
0.191 -0.0057283 0.0268227 -0.0133366 -0.299614 -0.0733981 9.54922 -7.91286e-10 6.81661e-10 5.33025e-10
0.197 -0.00105058 0.0168027 0.00261923 -0.222734 -0.12177 9.61456 -7.99565e-10 7.36436e-10 1.5789e-10
0.198 -0.00926612 -0.00228209 0.0137808 -0.0265921 -0.353917 9.92923 -8.00967e-10 7.45903e-10 9.05556e-11
0.199 -0.0155634 -0.00887964 -0.00819828 -0.469428 -0.29021 10.0176 -8.02374e-10 7.55453e-10 2.21129e-11
0.2 -0.00154056 0.000878151 0.0135759 -0.02529 -0.29417 9.97513 -8.03785e-10 7.65079e-10 -4.73503e-11
0.201 -0.00752969 0.00470818 0.00175431 -0.393487 -0.160293 9.88832 -8.05201e-10 7.74776e-10 -1.17761e-10
0.202 -0.0171721 0.00204554 -0.0230024 -0.112138 -0.105544 9.64923 -8.06621e-10 7.84538e-10 -1.89046e-10
0.203 -0.00168328 0.0305622 -0.01004 -0.396049 -0.0818883 9.70009 -8.08044e-10 7.94359e-10 -2.61141e-10
0.204 -0.00216074 0.00646142 0.00369697 -0.335049 -0.0695361 9.81668 -8.09471e-10 8.04234e-10 -3.33668e-10
0.205 0.00167692 -0.00894983 0.0122627 -0.295217 -0.253473 9.95737 -8.10901e-10 8.14157e-10 -4.06265e-10
0.206 -0.00599345 0.00967058 0.000209204 -0.313805 -0.213686 9.71271 -8.12333e-10 8.24124e-10 -4.78589e-10
0.207 -0.00332596 -0.018796 -0.011973 -0.490568 -0.41667 9.78329 -8.13768e-10 8.34131e-10 -5.50309e-10
0.208 -0.0308101 -0.00397132 0.00586608 -0.311393 0.00777719 9.83135 -8.15206e-10 8.44175e-10 -6.2111e-10
0.209 0.0121704 -0.00227881 0.000428072 -0.335195 -0.0154297 9.96102 -8.16646e-10 8.54251e-10 -6.90691e-10
0.21 -0.0163408 0.00538334 -0.0013605 -0.371129 -0.14489 9.70105 -8.18087e-10 8.64354e-10 -7.58763e-10
0.211 0.00250945 0.0121987 0.00186969 0.00434003 -0.13526 9.91231 -8.19531e-10 8.74463e-10 -8.25051e-10
0.212 0.000571613 0.0235862 0.00487471 -0.307347 -0.128302 9.9319 -8.20976e-10 8.84522e-10 -8.89292e-10
0.213 -0.01405 0.0235282 0.0224056 -0.263605 -0.484396 9.89182 -8.22423e-10 8.94448e-10 -9.51241e-10
0.214 -0.00123443 0.00833036 -0.00198761 -0.139061 -0.230488 9.65616 -8.2387e-10 9.04191e-10 -1.01067e-09
0.215 -0.0095883 0.0154622 -0.0156961 -0.186844 -0.105989 9.83896 -8.25319e-10 9.13784e-10 -1.06734e-09
0.216 -0.00919802 -0.00656451 -0.00360003 -0.2674 -0.187663 9.90496 -8.26768e-10 9.23344e-10 -1.12102e-09
0.217 0.00674049 0.0160819 0.00733307 -0.320682 -0.179523 9.86149 -8.28219e-10 9.33016e-10 -1.1715e-09
0.218 0.00466642 0.028936 -0.0125096 -0.314997 -0.0738957 9.85404 -8.29671e-10 9.42896e-10 -1.21854e-09
0.219 0.01413 0.00414805 0.00695155 -0.482414 -0.0345319 10.0316 -8.31124e-10 9.5301e-10 -1.26197e-09
0.22 -0.00947046 0.0177705 0.00956326 -0.275309 -0.268729 10.2197 -8.32577e-10 9.63343e-10 -1.30158e-09
0.221 -0.00110004 0.0147737 -0.0102501 -0.0145266 -0.0783205 9.9615 -8.34032e-10 9.73869e-10 -1.33721e-09
0.223 -0.0137483 0.0112312 -0.012769 -0.0954806 -0.505409 9.87719 -8.3695e-10 9.95287e-10 -1.39608e-09
0.224 0.0123235 0.0142439 -0.00439096 -0.424488 -0.202094 9.82605 -8.38426e-10 1.00591e-09 -1.41948e-09
0.225 0.00994482 0.00683335 -0.00361758 -0.45689 -0.273575 9.64173 -8.39921e-10 1.01632e-09 -1.43897e-09
0.226 0.0042772 0.0038549 0.000606941 -0.242414 -0.24792 9.94681 -8.4144e-10 1.02639e-09 -1.45461e-09
0.227 0.0174661 0.00557779 0.00913744 -0.234712 -0.164335 10.0251 -8.4299e-10 1.03603e-09 -1.46644e-09
0.228 -0.0272289 0.0137684 -0.00780312 -0.283613 -0.1403 9.66684 -8.44573e-10 1.04514e-09 -1.47453e-09
0.229 0.00237406 0.0314476 0.00446476 -0.166346 -0.192868 10.0296 -8.46195e-10 1.05364e-09 -1.47891e-09
0.23 0.0162303 0.00129463 0.00959021 -0.349234 -0.12343 9.82985 -8.4786e-10 1.06145e-09 -1.47962e-09
0.231 0.0082712 -0.0101274 -0.00309999 -0.00937087 -0.465646 9.79512 -8.49572e-10 1.06848e-09 -1.4767e-09
0.232 0.000114702 0.0151226 0.00309748 -0.126819 -0.112306 10.0216 -8.51333e-10 1.07466e-09 -1.47017e-09
0.233 0.0201496 0.000115044 -0.00152739 -0.163997 -0.0650094 9.84966 -8.53149e-10 1.07995e-09 -1.46007e-09
0.234 0.0128173 0.00926887 0.0103461 -0.0954593 -0.192877 9.73132 -8.55021e-10 1.08427e-09 -1.44642e-09
0.235 -0.0226007 0.0275073 -0.0208696 -0.192359 -0.0167284 9.97609 -8.56953e-10 1.08757e-09 -1.42923e-09
0.236 -0.00282297 0.00733633 -0.00987541 -0.180628 -0.324178 9.76659 -8.58948e-10 1.08984e-09 -1.40852e-09
0.237 -0.0115033 0.0112251 -0.00405639 -0.323742 -0.0305738 9.96908 -8.61008e-10 1.09104e-09 -1.38432e-09
0.238 0.00196483 -0.00140059 0.0139022 -0.0804665 -0.122913 9.67622 -8.63136e-10 1.09118e-09 -1.35665e-09
0.239 0.0102254 0.00107135 0.0119641 -0.316485 -0.215651 9.78627 -8.65334e-10 1.09018e-09 -1.3255e-09
0.24 -0.00463943 0.00829029 0.00447929 -0.341544 -0.166258 9.51433 -8.67604e-10 1.08798e-09 -1.29089e-09
0.241 0.00767998 0.0161774 0.00775564 -0.213612 0.0191236 9.86268 -8.69949e-10 1.0845e-09 -1.25282e-09
0.242 -0.0142525 0.0206446 0.022055 -0.414394 -0.005362 9.99318 -8.7237e-10 1.07967e-09 -1.21127e-09
0.243 0.00335191 -0.0103948 -0.00922671 -0.163635 -0.163134 9.86642 -8.74858e-10 1.07353e-09 -1.16666e-09
0.244 -0.00533886 0.0124653 -0.0144102 -0.263472 -0.248884 9.98133 -8.77401e-10 1.06609e-09 -1.1194e-09
0.245 0.000518441 0.000753898 0.00207822 -0.171609 -0.308551 10.0164 -8.79992e-10 1.05739e-09 -1.06985e-09
0.246 -0.00116992 0.00243191 -0.00606274 -0.236926 0.0591487 9.81939 -8.82621e-10 1.04743e-09 -1.01835e-09
0.247 -0.00224432 -7.85584e-05 -0.0110215 -0.132634 -0.117167 9.79378 -8.85281e-10 1.03623e-09 -9.65236e-10
0.248 -0.0116475 0.00478696 -0.00426162 -0.531134 -0.177318 9.97124 -8.87964e-10 1.02379e-09 -9.10804e-10
0.249 0.0153425 0.014706 0.00633782 -0.155379 -0.0804046 9.92359 -8.90663e-10 1.01011e-09 -8.55338e-10
0.25 -0.0133289 0.00690059 0.00150557 -0.172662 -0.0330983 10.0074 -8.93371e-10 9.95207e-10 -7.99107e-10
0.251 0.00359836 -0.00512645 0.0141794 -0.103507 -0.292175 9.50261 -8.96083e-10 9.79064e-10 -7.42358e-10
0.252 -0.00140182 0.0226006 0.0054214 -0.0722807 -0.15907 9.75641 -8.98791e-10 9.61681e-10 -6.85324e-10
0.253 0.000758023 0.00150843 -0.00156043 -0.25747 -0.317319 9.71642 -9.01491e-10 9.43052e-10 -6.28227e-10
0.254 0.0176723 0.00323126 0.00999465 -0.0935128 -0.353878 9.98737 -9.04177e-10 9.23173e-10 -5.71272e-10
0.255 0.00769691 -0.00277973 0.00957912 -0.213122 0.0238002 9.65915 -9.06844e-10 9.02033e-10 -5.14654e-10
0.256 -0.00584896 0.0151768 0.00395894 -0.129003 -0.320997 9.64393 -9.09488e-10 8.79626e-10 -4.58556e-10
0.257 0.0100067 -0.00280389 -0.00328311 -0.248557 -0.167751 10.1379 -9.12103e-10 8.55941e-10 -4.03151e-10
0.258 -0.00889329 -0.00517791 -0.00577893 -0.325889 -0.148703 9.64221 -9.14687e-10 8.30956e-10 -3.486e-10
0.259 0.0048509 0.00476473 0.0141236 -0.201028 -0.0425764 9.68122 -9.17235e-10 8.04621e-10 -2.95058e-10
0.26 -0.00546383 0.00736255 0.0177768 -0.317507 -0.374177 9.72365 -9.19742e-10 7.7685e-10 -2.42676e-10
0.261 -0.00320109 0.00806023 0.00933288 -0.244077 -0.267043 9.73022 -9.22211e-10 7.4764e-10 -1.91771e-10
0.262 -0.0176589 0.0185469 -0.000911832 -0.481229 -0.103307 9.76356 -9.24641e-10 7.1705e-10 -1.4263e-10
0.263 0.0175266 -0.00897826 0.0163573 -0.166989 -0.0621537 9.79492 -9.27034e-10 6.85231e-10 -9.55423e-11
0.267 0.00385673 -0.000766059 0.0130401 -0.187949 -0.119713 9.81884 -9.36253e-10 5.49041e-10 6.74692e-11
0.268 0.0026424 -0.00236831 -0.0071597 -0.0841646 -0.169923 10.0026 -9.38474e-10 5.1317e-10 1.00711e-10
0.269 -0.00869031 0.0396102 0.00402826 -0.0294229 -0.229946 9.6983 -9.40664e-10 4.7662e-10 1.3052e-10
0.27 0.014503 0.032324 0.0192917 -0.341156 -0.412532 9.82212 -9.42823e-10 4.39407e-10 1.56683e-10
0.271 -0.0132058 0.0152552 0.0102267 -0.058105 -0.227985 9.87213 -9.44952e-10 4.01546e-10 1.79003e-10
0.272 0.00138829 0.00758975 -0.00767272 -0.23155 0.0500642 9.65549 -9.47053e-10 3.6305e-10 1.97302e-10
0.273 -1.33785e-05 -0.00340626 -0.00759011 -0.31959 -0.0956023 9.88854 -9.49125e-10 3.23936e-10 2.11405e-10
0.274 -0.00110881 0.000331233 0.00726217 -0.17699 -0.0833306 9.71314 -9.5117e-10 2.84219e-10 2.21144e-10
0.275 0.00634607 0.0221988 -0.00736694 -0.12045 -0.108604 9.93914 -9.53189e-10 2.43915e-10 2.26356e-10
0.276 -0.000977071 -0.00573469 0.0134106 -0.238527 -0.209035 9.85373 -9.55182e-10 2.03043e-10 2.26892e-10
0.277 -0.00532153 0.021598 0.0131856 -0.326061 0.0286653 9.78348 -9.5715e-10 1.61618e-10 2.22608e-10
0.278 0.00671101 0.0148856 0.000774565 -0.160825 0.0295679 9.98312 -9.59095e-10 1.19658e-10 2.13367e-10
0.279 0.0167881 0.00706511 -0.00668601 -0.137071 -0.236182 9.79904 -9.61016e-10 7.71819e-11 1.99035e-10
0.281 0.0082338 0.0155199 -0.0114925 -0.221216 -0.13912 9.91486 -9.64792e-10 -9.25156e-12 1.54614e-10
0.282 0.0126688 0.00939125 -0.0205811 -0.0334068 0.0817906 9.65074 -9.66645e-10 -5.30758e-11 1.24984e-10
0.283 -0.0119567 0.00346352 -0.00800942 -0.357417 0.0342789 9.63353 -9.6847e-10 -9.71446e-11 9.11426e-11
0.284 -0.00424733 0.00148949 0.0135271 -0.0291774 -0.0343595 9.81707 -9.70266e-10 -1.41326e-10 5.35915e-11
0.285 0.0162678 -0.00668007 -0.0052636 -0.150447 -0.42877 9.99758 -9.72029e-10 -1.85492e-10 1.27961e-11
0.286 -0.0145816 0.0166532 0.0050171 -0.0669178 -0.130757 9.83171 -9.73757e-10 -2.29548e-10 -3.08058e-11
0.287 0.00702031 0.00639735 -0.0122035 -0.343007 -0.242059 9.73414 -9.75448e-10 -2.73435e-10 -7.67996e-11
0.288 -0.0173243 0.000227979 -0.00377545 -0.445483 -0.242735 9.87467 -9.77099e-10 -3.17113e-10 -1.24786e-10
0.289 -0.00878464 0.0165633 0.0191619 -0.370615 -0.0506132 9.65729 -9.78708e-10 -3.60536e-10 -1.74405e-10
0.29 -0.000559731 0.00819373 0.0112054 -0.271419 -0.260929 9.76624 -9.80273e-10 -4.03634e-10 -2.25309e-10
0.291 0.00271021 0.00914506 -2.6969e-05 -0.395039 -0.200667 10.0347 -9.8179e-10 -4.46331e-10 -2.77178e-10
0.292 -0.00634827 -0.0151016 0.0202381 -0.140156 -0.05644 9.84 -9.83259e-10 -4.88549e-10 -3.2973e-10
0.293 -0.00904456 0.00541791 -0.0108964 -0.456859 0.0222784 9.84968 -9.84676e-10 -5.30221e-10 -3.82682e-10
0.294 0.00349887 0.0155884 0.0199738 -0.142414 -0.201341 9.94446 -9.8604e-10 -5.7128e-10 -4.35781e-10
0.295 0.0116597 0.00286965 -1.1327e-05 -0.324716 -0.0363126 9.87447 -9.87349e-10 -6.11667e-10 -4.88786e-10
0.296 -0.0100682 0.00494813 0.00559382 -0.310004 -0.144322 9.70297 -9.886e-10 -6.51325e-10 -5.4147e-10
0.297 0.0102833 0.00512925 -0.0114264 -0.185035 -0.213849 9.94246 -9.89793e-10 -6.902e-10 -5.93619e-10
0.298 -0.0095908 -0.0327242 0.00491075 -0.220411 -0.111479 10.022 -9.90924e-10 -7.2824e-10 -6.45034e-10
0.299 0.0166529 -9.14624e-05 -0.0253946 -0.298749 -0.0920988 9.93904 -9.91992e-10 -7.65398e-10 -6.95526e-10
0.3 0.0029516 -0.00680542 0.00477499 -0.175417 0.148544 10.0923 -9.92996e-10 -8.01625e-10 -7.4492e-10
0.301 0.0235434 0.015626 -0.0179809 -0.182033 -0.3222 9.82721 -9.93934e-10 -8.36879e-10 -7.93049e-10
0.303 -0.00253983 -0.0166544 -0.0133899 -0.0620257 -0.137957 9.69211 -9.95604e-10 -9.04299e-10 -8.84894e-10
0.304 -0.00465258 -0.0101199 0.015813 -0.226435 -0.0789124 10.026 -9.96334e-10 -9.36386e-10 -9.28324e-10
0.305 0.00175098 0.0105782 0.00591462 -0.219632 -0.150824 9.96758 -9.96991e-10 -9.67347e-10 -9.69914e-10
0.306 -0.0189244 -0.0112317 0.00347334 -0.372636 -0.327111 9.77978 -9.97574e-10 -9.97173e-10 -1.00954e-09
0.307 0.00124398 0.000417655 0.0124783 -0.229506 -0.308174 9.71621 -9.98082e-10 -1.0259e-09 -1.04709e-09
0.308 0.00182033 0.0177209 -0.0092639 -0.14984 -0.082055 9.66994 -9.98512e-10 -1.05356e-09 -1.08245e-09
0.309 0.00163334 0.00892643 0.0208873 -0.419007 -0.0967012 9.80248 -9.98865e-10 -1.08017e-09 -1.11555e-09
0.31 -0.0214881 0.0104983 -0.0106086 -0.276217 -0.112482 10.0536 -9.99139e-10 -1.10564e-09 -1.14627e-09
0.311 -0.00369624 -0.000535224 -0.00265479 -0.135892 -0.0920361 9.88716 -9.99332e-10 -1.12979e-09 -1.1745e-09
0.312 -0.0172099 0.0108289 0.0233871 -0.292346 -0.165818 9.95619 -9.99443e-10 -1.15248e-09 -1.20016e-09
0.313 -0.00325784 0.012143 -0.00692896 -0.241058 0.0161741 9.80921 -9.99472e-10 -1.17359e-09 -1.22314e-09
0.314 0.00331143 0.00397263 0.0173258 -0.139852 -0.106178 9.80042 -9.99417e-10 -1.19309e-09 -1.24338e-09
0.315 0.0032161 0.00398036 -0.0137281 -0.249323 0.00843697 9.64437 -9.99278e-10 -1.21099e-09 -1.26078e-09
0.316 -0.010853 -0.00505643 -0.0291041 -0.381242 -0.42 10.0522 -9.99053e-10 -1.22727e-09 -1.27529e-09
0.317 -0.00613708 -0.00534931 0.00285513 -0.588249 -0.160034 9.81614 -9.98742e-10 -1.24194e-09 -1.28683e-09
0.318 -0.0159319 0.0041042 -0.00537154 -0.379649 -0.0490834 9.80527 -9.98343e-10 -1.25502e-09 -1.29536e-09
0.319 -0.0064747 0.00468878 0.00871109 -0.265332 -0.205544 9.79156 -9.97855e-10 -1.26649e-09 -1.30079e-09
0.32 0.0123956 0.0145634 0.0152481 -0.400394 -0.120148 9.95508 -9.97278e-10 -1.27636e-09 -1.3031e-09
0.321 -0.0125221 0.00276069 0.00304621 -0.198289 -0.172099 9.85094 -9.96611e-10 -1.28464e-09 -1.3022e-09
0.322 -0.0216084 0.00749951 -0.00418718 -0.244529 -0.320403 10.0165 -9.95853e-10 -1.2913e-09 -1.29807e-09
0.323 -0.00375617 -0.00507017 -0.0160626 -0.129997 -0.0923332 9.80519 -9.95003e-10 -1.29636e-09 -1.29065e-09
0.324 -0.0230152 0.00861491 0.000794661 -0.0357094 -0.165549 9.6249 -9.9406e-10 -1.29981e-09 -1.2799e-09
0.325 -0.00923533 0.00896073 -3.81658e-06 1.67671e-05 -0.208082 9.88631 -9.93024e-10 -1.30163e-09 -1.26577e-09
0.326 -0.0150393 0.0121197 -0.0252427 -0.135509 -0.220091 9.88165 -9.91895e-10 -1.30182e-09 -1.24822e-09
0.327 -0.000277096 0.00700731 -0.00254305 -0.340684 -0.118348 10.0014 -9.9067e-10 -1.30037e-09 -1.22722e-09
0.328 -0.0138025 0.00343502 -0.00773905 -0.282995 -0.319184 9.77863 -9.8935e-10 -1.29728e-09 -1.20274e-09
0.33 -0.0143428 0.00908501 -0.0104666 -0.263438 -0.0647179 9.8293 -9.86423e-10 -1.2861e-09 -1.14317e-09
0.331 -0.0144856 0.00893684 0.0106122 -0.356336 -0.296017 9.89215 -9.84814e-10 -1.27795e-09 -1.10803e-09
0.332 -0.00870986 0.00498819 -0.000991277 -0.168959 -0.196288 9.66049 -9.83107e-10 -1.26804e-09 -1.0693e-09
0.333 -0.0148115 0.00873387 0.00740312 -0.338654 -0.175021 9.62551 -9.81302e-10 -1.25634e-09 -1.02694e-09
0.334 0.00401418 -0.000869906 -0.0130908 -0.171379 0.0509068 9.95781 -9.79399e-10 -1.24286e-09 -9.80945e-10
0.335 -0.0193728 0.00820377 -0.00575021 -0.450516 -0.0625457 9.82754 -9.77397e-10 -1.22763e-09 -9.31267e-10
0.336 -0.000815709 -0.00204088 0.00847964 -0.330836 -0.202711 9.9087 -9.75295e-10 -1.21068e-09 -8.77888e-10
0.337 -0.00473486 -0.00239912 -0.00215543 -0.326822 -0.0546442 9.75525 -9.73093e-10 -1.19202e-09 -8.20772e-10
0.338 0.00129734 0.00544288 -0.022225 -0.333585 0.0395316 9.92707 -9.70791e-10 -1.17163e-09 -7.59892e-10
0.339 0.00634535 -0.00338611 0.00553978 -0.338117 -0.0717227 9.85116 -9.68396e-10 -1.14964e-09 -6.95549e-10
0.34 -0.017686 -0.00814799 0.0311654 -0.151626 -0.0910228 10.1088 -9.65915e-10 -1.12617e-09 -6.28005e-10
0.341 -0.00171635 -0.0097778 0.00090985 -0.220175 -0.0560478 9.84606 -9.63351e-10 -1.10141e-09 -5.57666e-10
0.342 0.00490892 0.0185069 0.00170073 -0.112412 -0.106975 9.76404 -9.60705e-10 -1.07554e-09 -4.84901e-10
0.343 0.00445538 0.00804215 0.00458752 -0.357473 -0.195546 10.1101 -9.5798e-10 -1.04872e-09 -4.10063e-10
0.344 0.0061844 0.0070196 -0.00110291 -0.352734 -0.159673 9.97098 -9.55176e-10 -1.02111e-09 -3.33477e-10
0.345 -0.00678524 0.0143552 -0.00203737 -0.244996 -0.195624 9.79968 -9.52294e-10 -9.9286e-10 -2.55451e-10
0.346 -0.0125825 -0.0044431 -0.00474713 -0.305528 -0.121518 9.96019 -9.49336e-10 -9.64114e-10 -1.76273e-10
0.348 0.00313612 0.0065235 0.0126395 -0.496655 -0.316014 9.84366 -9.43191e-10 -9.05649e-10 -1.55179e-11
0.349 0.00389233 -0.00660266 0.0166359 -0.203239 -0.269086 9.90888 -9.40005e-10 -8.76169e-10 6.55677e-11
0.35 -0.00181414 -0.0159744 0.0103037 -0.5724 -0.174433 9.75611 -9.36744e-10 -8.46672e-10 1.46822e-10
0.351 -0.00128054 -0.00428328 0.00155561 -0.366821 -0.00129008 9.93443 -9.33407e-10 -8.17262e-10 2.28036e-10
0.352 -0.0165228 0.0388921 -0.00818439 -0.370339 -0.287082 9.88907 -9.29996e-10 -7.88038e-10 3.0901e-10
0.353 -0.0119541 0.0106094 -0.00594781 -0.402488 -0.424806 9.77797 -9.26509e-10 -7.59106e-10 3.8956e-10
0.354 -0.00761864 0.0104699 -0.0114425 -0.275822 -0.135914 9.70096 -9.22946e-10 -7.30602e-10 4.69505e-10
0.355 -0.0205981 0.00752179 0.0207074 -0.183803 -0.198446 10.0268 -9.19306e-10 -7.02686e-10 5.48671e-10
0.356 -0.00220908 0.0208548 -0.003535 -0.361865 -0.317562 9.90807 -9.1559e-10 -6.75489e-10 6.26897e-10
0.357 0.00581124 0.00288724 0.00307522 -0.0818962 -0.157921 9.95795 -9.11797e-10 -6.49058e-10 7.04019e-10
0.358 -0.00215485 0.0173647 -0.00969628 -0.325546 -0.213719 9.93556 -9.07926e-10 -6.23344e-10 7.79908e-10
0.359 0.00711176 0.00698696 0.0174564 -0.282225 -0.0233807 10.1331 -9.03977e-10 -5.98267e-10 8.54459e-10
0.36 0.0068343 -0.000575227 0.000537819 -0.124999 -0.359568 9.88732 -8.99949e-10 -5.73782e-10 9.27526e-10
0.361 -0.00779251 0.00610868 -0.00329969 -0.240593 -0.296088 9.95326 -8.95846e-10 -5.49835e-10 9.98854e-10
0.362 -0.00590577 0.0186147 -0.0113714 -0.285854 -0.403065 10.067 -8.91672e-10 -5.26418e-10 1.06814e-09
0.364 -0.0091815 -0.00248336 0.0144473 -0.163454 -0.0916729 10.0022 -8.83124e-10 -4.81193e-10 1.1996e-09
0.365 0.00669501 0.00504184 -0.00904221 -0.430611 -0.257853 9.8506 -8.78756e-10 -4.59393e-10 1.26128e-09
0.366 0.00561429 0.00594097 -0.0138845 -0.181664 -0.259646 9.84424 -8.74329e-10 -4.38138e-10 1.31993e-09
0.367 0.00321684 -0.00584388 -0.00687364 -0.274535 -0.197315 10.0109 -8.69846e-10 -4.17427e-10 1.37535e-09
0.368 -0.0128438 -0.00267152 0.00135308 -0.389862 -0.272559 9.94887 -8.6531e-10 -3.97257e-10 1.42733e-09
0.369 -0.00366086 -0.00609029 0.0135556 -0.215079 -0.0753634 9.89423 -8.60722e-10 -3.77624e-10 1.47566e-09
0.37 -0.0202219 0.009648 -0.00276446 -0.123945 -0.366681 10.092 -8.56086e-10 -3.58522e-10 1.52015e-09
0.371 0.0138748 0.0167848 0.00653435 -0.112049 -0.165454 10.0691 -8.51404e-10 -3.39943e-10 1.56063e-09
0.372 -0.0109281 0.00336463 0.00323444 -0.0102084 -0.206838 9.95008 -8.46677e-10 -3.21878e-10 1.59692e-09
0.373 0.0196677 0.0108949 -0.00873006 -0.257309 -0.125631 9.98139 -8.41908e-10 -3.04316e-10 1.62886e-09
0.374 -0.00709005 0.0144915 0.00754531 -0.273722 -0.174854 9.70246 -8.37098e-10 -2.87246e-10 1.65628e-09
0.375 -0.00947853 -0.0149871 0.00765629 -0.239267 -0.15992 9.83034 -8.3225e-10 -2.70657e-10 1.67904e-09
0.377 -0.00521031 -3.72673e-05 -0.00525124 -0.201256 0.0664755 9.9597 -8.22446e-10 -2.38859e-10 1.71001e-09
0.378 -0.00169608 0.0223013 -0.0308553 -0.208182 0.0728404 9.93865 -8.17492e-10 -2.23597e-10 1.71796e-09
0.379 -0.0054601 -0.0112394 0.0359201 -0.347165 -0.0376943 9.66517 -8.12507e-10 -2.08699e-10 1.7207e-09
0.38 -0.00760093 0.0188404 -0.0197944 -0.191968 -0.139681 9.77228 -8.07491e-10 -1.94127e-10 1.71811e-09
0.383 -0.0184767 -0.00413062 -0.0143516 -0.163091 -0.157243 9.87062 -7.92272e-10 -1.52408e-10 1.67729e-09
0.384 0.0148485 0.0173885 -0.00727656 -0.260439 -0.0803886 10.1106 -7.87147e-10 -1.39244e-10 1.65234e-09
0.385 0.00349399 0.0179401 0.017024 -0.131102 -0.0779504 9.87226 -7.81997e-10 -1.26451e-10 1.62157e-09
0.386 0.0184612 0.00229533 -0.00463462 -0.283155 -0.118282 9.8071 -7.76824e-10 -1.13997e-10 1.58542e-09
0.387 0.00330679 0.00417213 -0.00046596 -0.197189 -0.0288893 9.8872 -7.71631e-10 -1.01851e-10 1.54432e-09
0.388 -0.0246945 0.0119526 -0.0126711 -0.368216 -0.208306 9.67606 -7.66419e-10 -8.99857e-11 1.49863e-09
0.389 0.00207616 0.00990644 0.0039001 -0.290998 -0.477422 9.75913 -7.6119e-10 -7.83789e-11 1.44872e-09
0.391 0.00632943 0.0017759 -0.00719412 -0.380845 -0.197285 9.81061 -7.50684e-10 -5.58627e-11 1.33748e-09
0.392 -0.00521045 0.0163721 -0.00685786 -0.476215 0.0662403 10.1368 -7.4541e-10 -4.49191e-11 1.27673e-09
0.393 0.0173595 0.0169869 -0.0108793 -0.0578243 -0.252975 9.98757 -7.40123e-10 -3.41648e-11 1.2129e-09
0.394 -0.00851669 -0.00834033 0.00105732 -0.368689 -0.268173 10.0116 -7.34825e-10 -2.35862e-11 1.14623e-09
0.396 -0.0139142 0.00140559 -0.0109757 -0.0906533 -0.224623 9.96787 -7.24198e-10 -2.90603e-12 1.00522e-09
0.397 -0.0245597 -0.0109693 -0.00899638 -0.307689 -0.060607 9.75047 -7.1887e-10 7.21839e-12 9.31262e-10
0.398 -0.0164864 0.00127217 0.017452 -0.221701 -0.0319331 10.0568 -7.13535e-10 1.7213e-11 8.5523e-10
0.399 0.00698801 0.00415465 0.014353 -0.263945 -0.238664 10.0495 -7.08192e-10 2.70866e-11 7.77283e-10
0.4 0.00976274 0.00235448 0.00406263 -0.172209 -0.203471 9.98157 -7.02842e-10 3.68399e-11 6.97565e-10
0.401 -0.00554388 0.0171663 -0.00103419 -0.315886 -0.0275092 10.1177 -6.97486e-10 4.64447e-11 6.16209e-10
0.402 0.0058062 0.0114361 -0.000903122 -0.314619 -0.403782 9.77737 -6.92124e-10 5.58368e-11 5.33332e-10
0.403 -0.0167492 0.00947251 -0.00297962 -0.0592728 -0.0904142 9.88398 -6.86757e-10 6.49517e-11 4.49042e-10
0.404 0.012645 0.0112925 -0.00249487 -0.399969 -0.434499 9.70402 -6.81384e-10 7.37875e-11 3.63429e-10
0.405 -0.00229921 0.0185538 -0.0130164 -0.425539 -0.148436 9.79847 -6.76007e-10 8.24354e-11 2.7661e-10
0.406 -0.00853488 -0.00653095 -0.00813727 -0.19118 -0.123634 9.96935 -6.70626e-10 9.1044e-11 1.88664e-10
0.407 0.00865061 0.00357672 0.00415845 -0.228792 -0.015862 9.90503 -6.65246e-10 9.96693e-11 9.98495e-11
0.408 0.00683005 0.00653829 -0.0146459 -0.207493 -0.390047 9.89418 -6.59871e-10 1.08302e-10 1.04117e-11
0.409 -0.00276036 0.0130832 -0.00543309 -0.272076 -0.196458 10.045 -6.54506e-10 1.16877e-10 -7.94634e-11
0.412 0.00152478 0.0151065 0.0125915 -0.168595 -0.15879 9.95492 -6.38511e-10 1.41401e-10 -3.49662e-10
0.413 -0.00939033 -0.00983695 -0.00412842 -0.208848 -0.289811 9.96066 -6.33225e-10 1.48902e-10 -4.39327e-10
0.414 0.00246986 0.00791969 -0.0123438 -0.229228 -0.0399944 9.90388 -6.27968e-10 1.5594e-10 -5.28504e-10
0.415 -0.00968744 0.0154777 0.0166336 -0.178237 0.00428703 9.89564 -6.22743e-10 1.62444e-10 -6.17042e-10
0.416 -0.0172134 0.00903068 0.0037086 -0.41456 -0.0878897 10.0074 -6.17554e-10 1.68349e-10 -7.04794e-10
0.417 0.00487122 0.00210416 0.00849484 -0.154427 0.172036 10.0001 -6.12404e-10 1.73593e-10 -7.91614e-10
0.418 -0.00942506 0.0154489 -0.000787062 -0.290752 -0.185491 10.2731 -6.07295e-10 1.78119e-10 -8.77368e-10
0.419 -0.00949847 0.0126122 0.00404586 -0.39602 -0.0843521 9.84278 -6.0223e-10 1.81872e-10 -9.61927e-10
0.42 -0.00685274 -0.00839021 -0.000458612 -0.194561 -0.033254 9.6852 -5.97213e-10 1.84801e-10 -1.04517e-09
0.421 -0.0158456 0.0107514 -0.00805062 -0.316978 -0.204578 9.73565 -5.92246e-10 1.86858e-10 -1.12698e-09
0.422 -0.00089994 0.0147407 0.00807852 -0.166814 -0.0772282 9.89646 -5.87331e-10 1.87998e-10 -1.20725e-09
0.423 -0.0175387 0.00487172 -0.00150085 -0.396089 -0.164046 9.99191 -5.8247e-10 1.88177e-10 -1.28587e-09
0.424 -0.0072599 0.0198888 0.018593 -0.274656 -0.128698 10.1514 -5.77667e-10 1.8736e-10 -1.36275e-09
0.425 -0.00909802 0.0170644 -1.60014e-05 -0.348342 -0.369718 9.76878 -5.72923e-10 1.85521e-10 -1.43779e-09
0.426 0.00542404 0.00465586 0.000841032 -0.118869 0.291335 9.80823 -5.6824e-10 1.82657e-10 -1.51091e-09
0.427 0.014015 -0.00805699 -0.00245302 -0.494932 0.102378 10.0968 -5.63621e-10 1.78764e-10 -1.58202e-09
0.428 -0.0107127 0.00820439 -0.00391584 -0.51573 -0.0345152 9.9847 -5.59067e-10 1.73817e-10 -1.65106e-09
0.429 0.0304213 0.0122255 0.0183046 -0.671764 -0.203813 9.79898 -5.54575e-10 1.67835e-10 -1.71777e-09
0.43 0.015269 -0.00121926 -0.0288116 -0.341501 -0.373842 9.63188 -5.50145e-10 1.60817e-10 -1.78193e-09
0.431 -0.00459162 0.0119108 0.00461895 -0.302131 -0.276051 9.71451 -5.45772e-10 1.52769e-10 -1.8433e-09
0.432 -0.013413 -0.00470905 0.0102981 -0.286825 -0.226197 9.88371 -5.41456e-10 1.43723e-10 -1.90164e-09
0.433 0.00999172 0.0262017 -0.00716363 -0.000223052 -0.0640522 9.69227 -5.37193e-10 1.33722e-10 -1.95678e-09
0.434 0.0126549 0.006124 0.0120006 -0.238621 0.0669825 9.84217 -5.32982e-10 1.2281e-10 -2.00851e-09
0.435 -0.0132284 -0.0059527 -0.0174424 -0.348308 -0.274663 9.94369 -5.2882e-10 1.11026e-10 -2.05665e-09
0.436 -0.00207689 0.0221656 0.0151196 -0.400955 -0.284664 9.93495 -5.24706e-10 9.84071e-11 -2.10102e-09
0.437 0.00672295 0.00646185 0.00164463 -0.148915 -0.222097 10.1073 -5.20638e-10 8.49872e-11 -2.14144e-09
0.438 0.00707972 0.0125438 0.0136455 -0.210122 0.10681 9.99462 -5.16614e-10 7.07979e-11 -2.17776e-09
0.439 0.00157144 0.0125989 -0.0093767 -0.33059 -0.0465184 9.97468 -5.12633e-10 5.58696e-11 -2.20982e-09
0.44 0.00234482 0.0118367 0.0160625 -0.235167 -0.0297321 9.69983 -5.08692e-10 4.02312e-11 -2.23745e-09
0.441 -0.0123347 0.0156874 -0.0272271 -0.113919 -0.170649 9.89802 -5.0479e-10 2.39107e-11 -2.26053e-09
0.442 -0.00387436 0.00555283 -0.00442277 -0.217846 -0.126711 9.7446 -5.00927e-10 6.93483e-12 -2.2789e-09
0.443 -0.0201687 -0.000554543 -0.0157248 -0.183204 0.0634808 9.88731 -4.97099e-10 -1.06704e-11 -2.29243e-09
0.444 0.000810655 0.0148633 -0.00252906 -0.0406851 -0.204472 9.65797 -4.93306e-10 -2.88799e-11 -2.30099e-09
0.445 0.0151243 -0.000574372 0.00857349 -0.163607 -0.133356 9.6963 -4.89547e-10 -4.76695e-11 -2.30445e-09
0.446 0.0161042 0.0152457 0.00565604 -0.356293 -0.276102 9.85554 -4.85819e-10 -6.70161e-11 -2.30269e-09
0.447 0.0279021 -0.0136355 -0.00646137 -0.136808 -0.00182321 9.76253 -4.82122e-10 -8.68803e-11 -2.29611e-09
0.448 -0.0130327 0.00204789 0.00856303 -0.189039 0.0887868 9.97484 -4.78452e-10 -1.07245e-10 -2.28508e-09
0.449 0.0125357 0.00811695 0.0037815 -0.159972 -0.0745126 9.60758 -4.74807e-10 -1.28135e-10 -2.26994e-09
0.45 0.00787772 0.0218078 0.00449848 -0.246747 -0.184229 9.94489 -4.71186e-10 -1.49595e-10 -2.25101e-09
0.451 -0.0224929 -0.0213211 0.00942574 -0.0891527 -0.246547 9.89817 -4.67586e-10 -1.7163e-10 -2.22859e-09
0.452 -0.00192141 -0.0121665 0.00363105 -0.0176987 -0.077009 9.84754 -4.64006e-10 -1.94161e-10 -2.20295e-09
0.453 0.00556042 -0.00677147 0.00881183 -0.434726 -0.376718 10.1609 -4.60444e-10 -2.17031e-10 -2.17434e-09
0.454 -0.00469483 0.0142408 0.00205219 -0.267666 -0.295461 9.82073 -4.56899e-10 -2.40076e-10 -2.14297e-09
0.455 -0.00763411 0.00595067 -0.0111697 -0.311089 -0.0769226 9.97375 -4.5337e-10 -2.63186e-10 -2.10901e-09
0.456 -0.00773458 0.00660783 -0.00200906 -0.32789 -0.132291 10.0195 -4.49857e-10 -2.86322e-10 -2.07271e-09
0.457 -0.00535095 -0.00511547 0.00234277 -0.261611 -0.153065 9.92354 -4.46356e-10 -3.09485e-10 -2.0342e-09
0.458 -0.00765589 -0.00107116 0.00815616 -0.353986 -0.010729 9.96852 -4.42869e-10 -3.3268e-10 -1.99367e-09
0.459 -0.00890541 0.0165618 -0.00159196 -0.210209 -0.0945178 9.85832 -4.39393e-10 -3.55917e-10 -1.9513e-09
0.461 0.00640118 0.00999785 0.00671209 -0.299541 -0.250297 9.77889 -4.32473e-10 -4.02546e-10 -1.86151e-09
0.463 0.0200589 -0.0116923 -0.0175807 -0.434507 -0.071053 9.77145 -4.2559e-10 -4.49422e-10 -1.76588e-09
0.464 0.0132138 -0.00402345 0.00388524 -0.204278 -0.34215 9.89738 -4.22161e-10 -4.72964e-10 -1.71615e-09
0.465 0.00434479 0.0151752 -0.00141406 -0.100108 -0.0313504 9.96343 -4.1874e-10 -4.96579e-10 -1.66527e-09
0.466 0.00850556 -0.00832922 0.020243 -0.249134 -0.264103 9.81073 -4.15325e-10 -5.20267e-10 -1.61335e-09
0.467 -0.0262861 0.0267068 -0.000700281 -0.173458 -0.19096 9.98298 -4.11916e-10 -5.4403e-10 -1.56045e-09
0.471 -0.00378876 0.0168394 -0.00420674 -0.191419 -0.153147 9.87566 -3.9838e-10 -6.39048e-10 -1.34223e-09
0.475 0.0156393 -0.0103935 0.0087163 -0.371129 -0.227803 9.99515 -3.85177e-10 -7.30153e-10 -1.12367e-09
0.476 0.00219287 0.0300974 -0.0172809 -0.302986 -0.172194 9.64694 -3.81954e-10 -7.51691e-10 -1.0704e-09
0.477 0.00676216 -0.00544253 -0.0272916 -0.306712 -0.342561 9.78865 -3.78767e-10 -7.72651e-10 -1.01801e-09
0.478 -0.00429075 0.00300415 -0.015844 -0.234942 -0.13747 9.82301 -3.7562e-10 -7.93019e-10 -9.6663e-10
0.479 0.002555 0.00498786 -0.0118123 -0.0626583 -0.0445135 9.74359 -3.72516e-10 -8.12757e-10 -9.16402e-10
0.48 0.0194724 0.00220326 -0.00492659 -0.388615 -0.191494 10.0505 -3.69457e-10 -8.31811e-10 -8.67451e-10
0.481 -0.000492668 -0.0121446 0.00723809 -0.408374 -0.168925 9.92579 -3.66446e-10 -8.50123e-10 -8.19915e-10
0.482 0.00559409 0.0146924 -0.0148058 -0.24693 -0.128325 9.81106 -3.63485e-10 -8.67641e-10 -7.73913e-10
0.483 0.00286224 0.00384911 0.00911748 0.0626338 -0.300199 9.89626 -3.60577e-10 -8.84314e-10 -7.29566e-10
0.484 -0.00109816 0.0171634 -0.0160093 -0.24346 -0.189547 10.2848 -3.57723e-10 -9.00097e-10 -6.86983e-10
0.485 0.0108507 -0.0100671 -0.0188753 -0.267363 -0.447223 9.8171 -3.54927e-10 -9.14946e-10 -6.46273e-10
0.486 -0.0124738 0.0113559 -0.00480155 -0.411497 -0.070528 9.8701 -3.5219e-10 -9.28822e-10 -6.07534e-10
0.487 0.014049 -0.00335058 -0.00639772 -0.300694 -0.0124038 9.7776 -3.49513e-10 -9.41685e-10 -5.70865e-10
0.488 -0.0124732 -0.00383371 -0.0127662 -0.349856 -0.106851 9.68639 -3.469e-10 -9.53497e-10 -5.36355e-10
0.489 -0.00318686 0.0197926 0.00609597 -0.279642 -0.156195 9.8055 -3.44352e-10 -9.64224e-10 -5.04095e-10
0.49 -0.00759149 -0.0142015 0.00674517 -0.275945 -0.054398 9.83053 -3.41871e-10 -9.73831e-10 -4.74165e-10
0.491 -0.0130381 0.00629502 0.0186878 -0.132961 -0.152956 10.0181 -3.39458e-10 -9.82285e-10 -4.46649e-10
0.492 -0.0125357 -0.016689 0.00169944 -0.523032 -0.042469 9.85416 -3.37116e-10 -9.89556e-10 -4.21622e-10
0.493 -0.00609272 0.00487012 0.0064427 -0.206895 -0.118238 9.63574 -3.34845e-10 -9.95613e-10 -3.99158e-10
0.494 -0.00781007 -0.00990648 0.0117022 -0.239235 -0.102022 9.98901 -3.32648e-10 -1.00043e-09 -3.79328e-10
0.495 -0.0146855 0.0145759 0.00245487 -0.416402 -0.00784712 9.66324 -3.30526e-10 -1.00399e-09 -3.62199e-10
0.496 -0.00941026 0.00510095 -0.0105306 -0.281094 -0.0710061 9.79913 -3.28479e-10 -1.00631e-09 -3.47838e-10
0.497 -0.00709726 0.010004 -0.00770136 0.0770074 -0.0918422 9.8984 -3.26511e-10 -1.00745e-09 -3.36316e-10
0.499 -0.0175348 0.0166869 0.0176408 -0.296765 -0.259491 9.9874 -3.22811e-10 -1.00626e-09 -3.22059e-10
0.5 -0.00764792 0.012655 -0.0148986 -0.0840973 0.081841 9.66755 -3.21082e-10 -1.00375e-09 -3.19427e-10
0.501 -0.00278197 0.00433379 0.0207012 -0.370202 -0.178476 10.0571 -3.19436e-10 -9.99763e-10 -3.1987e-10
0.502 -0.0124048 -0.0122979 0.0116211 0.0616195 -0.172963 9.81115 -3.17874e-10 -9.94161e-10 -3.23415e-10
0.503 0.00042455 0.00842941 -0.00542875 -0.178586 -0.0213119 10.0084 -3.16397e-10 -9.86885e-10 -3.30093e-10
0.504 0.00948909 0.00399542 -0.0159595 -0.417277 0.0852208 9.86273 -3.15005e-10 -9.77925e-10 -3.39977e-10
0.505 0.0055563 0.00258937 -0.00281328 -0.0646204 -0.154339 9.98682 -3.13701e-10 -9.67288e-10 -3.53092e-10
0.506 -0.0183951 -0.0163741 0.00697212 -0.326216 -0.145592 9.69785 -3.12485e-10 -9.54981e-10 -3.69495e-10
0.507 0.00154292 0.00693296 -0.0105108 -0.159353 0.0274992 9.93172 -3.11358e-10 -9.41009e-10 -3.89231e-10
0.508 0.0138503 0.00502979 -0.0164088 -0.190383 -0.47421 9.82595 -3.1032e-10 -9.25379e-10 -4.12334e-10
0.509 -0.0112358 -0.0101966 0.00951118 -0.247479 -0.190197 10.0145 -3.09373e-10 -9.08094e-10 -4.38839e-10
0.51 0.0115116 -0.0109242 -0.00763785 -0.167559 -0.27859 10.093 -3.08518e-10 -8.89155e-10 -4.68785e-10
0.511 0.00360894 0.00201918 -0.000604166 -0.353061 -0.0986701 9.88819 -3.07755e-10 -8.68562e-10 -5.02209e-10
0.512 -0.0243501 -0.00033948 0.00448223 -0.28544 -0.0981368 9.82525 -3.07081e-10 -8.46526e-10 -5.38686e-10
0.513 0.0116056 -0.00868344 0.00701151 -0.252222 0.0237034 9.89863 -3.06495e-10 -8.23242e-10 -5.77822e-10
0.514 -0.00833813 0.00334662 0.000154355 -0.2796 -0.0405008 9.92301 -3.05994e-10 -7.98894e-10 -6.19247e-10
0.515 -0.0159201 -0.0026758 -0.00404954 -0.275484 -0.0287924 9.69144 -3.05576e-10 -7.73651e-10 -6.62617e-10
0.516 -0.00495447 0.0149755 0.00956853 -0.196136 -0.238606 9.90532 -3.05241e-10 -7.47674e-10 -7.07604e-10
0.517 0.00803541 0.0180757 0.0250086 -0.248815 -0.0527204 9.81643 -3.04986e-10 -7.21109e-10 -7.53903e-10
0.518 0.00039999 0.00787065 0.00668815 -0.234114 -0.255595 9.81065 -3.04812e-10 -6.94096e-10 -8.01228e-10
0.519 -0.0116214 0.0193822 0.00727923 -0.299966 -0.22274 10.0889 -3.04717e-10 -6.66758e-10 -8.4931e-10
0.52 -0.0168636 0.00455052 0.000558533 -0.186776 -0.0725952 9.88811 -3.04701e-10 -6.39197e-10 -8.979e-10
0.521 0.00390028 0.00415067 -0.00543509 -0.0220041 -0.157866 9.89938 -3.04763e-10 -6.11493e-10 -9.46766e-10
0.522 0.0123223 -0.00645957 0.00373053 -0.297557 -0.0782393 9.89731 -3.04903e-10 -5.83727e-10 -9.95693e-10
0.523 -0.00248865 -0.00682861 0.00515131 -0.210928 -0.376001 9.96547 -3.05122e-10 -5.55998e-10 -1.04448e-09
0.524 0.00480309 0.00665735 0.00146826 -0.250485 -0.222459 9.89375 -3.05419e-10 -5.28436e-10 -1.09292e-09
0.525 0.00899875 -0.000429874 0.00479241 -0.204574 -0.0623404 9.9288 -3.05794e-10 -5.01173e-10 -1.14081e-09
0.526 0.00744645 0.00244535 -0.0114047 -0.331856 -0.0761283 9.88468 -3.06247e-10 -4.7432e-10 -1.188e-09
0.527 -0.0170733 -0.00788725 -0.00755233 -0.385168 -0.248731 9.68831 -3.06779e-10 -4.47962e-10 -1.2343e-09
0.528 -0.00449854 0.00292771 0.00853875 -0.430842 -0.380087 9.97808 -3.0739e-10 -4.22166e-10 -1.27956e-09
0.529 0.00122974 0.012195 0.00914542 -0.082429 -0.220982 9.79198 -3.0808e-10 -3.96996e-10 -1.32365e-09
0.53 -0.0122346 -0.00211043 0.00239285 -0.35724 -0.122603 9.90384 -3.0885e-10 -3.72517e-10 -1.36643e-09
0.531 -0.0142038 -0.00839525 -0.00182592 -0.183374 -0.298493 9.83648 -3.09701e-10 -3.48788e-10 -1.40777e-09
0.532 0.00249217 0.0115112 -0.00430814 -0.0789929 -0.284568 10.0159 -3.10632e-10 -3.25869e-10 -1.44755e-09
0.533 0.0013971 -0.0250783 -0.00406099 -0.0968438 -0.154103 9.88813 -3.11644e-10 -3.03817e-10 -1.48567e-09
0.534 0.0105218 0.0204381 0.0380763 -0.234319 -0.323112 9.90356 -3.12739e-10 -2.82685e-10 -1.52201e-09
0.535 0.00599135 0.00288228 -0.0114193 -0.18466 -0.222 9.60772 -3.13916e-10 -2.62523e-10 -1.55647e-09
0.536 -0.0125989 0.0156634 0.00654938 -0.292571 -0.287323 9.71165 -3.15176e-10 -2.43381e-10 -1.58896e-09
0.537 -0.00781041 0.0186542 -0.000240759 -0.4756 0.0599971 9.81318 -3.1652e-10 -2.25302e-10 -1.61939e-09
0.538 -0.00499283 0.00365541 0.000279151 0.075402 0.0226044 9.82508 -3.17949e-10 -2.0833e-10 -1.64766e-09
0.539 -0.0029935 0.00555999 0.0104212 -0.0725016 -0.309181 9.88772 -3.19463e-10 -1.92505e-10 -1.6737e-09
0.54 -0.00034624 0.0155444 -0.0159803 0.0332738 -0.0735397 9.89547 -3.21063e-10 -1.77865e-10 -1.69743e-09
0.541 -0.0119644 0.0118329 -0.00868807 -0.331095 -0.380053 9.89439 -3.22749e-10 -1.64447e-10 -1.71878e-09
0.542 -0.00223254 -0.00555123 -0.00569595 -0.298765 -0.109949 9.83123 -3.24522e-10 -1.5229e-10 -1.73766e-09
0.543 0.00907415 0.0143843 -0.0189198 -0.273503 -0.0892155 9.75872 -3.26383e-10 -1.4146e-10 -1.75403e-09
0.544 -0.0105991 -0.00689993 -0.00281676 0.00748312 -0.285658 9.79351 -3.28332e-10 -1.32055e-10 -1.76782e-09
0.545 -0.00347094 0.0170495 0.00205555 -0.260747 -0.145318 10.2378 -3.30371e-10 -1.24179e-10 -1.77897e-09
0.546 -0.00773416 0.00134811 -0.00586778 -0.173274 -0.394761 9.83642 -3.32498e-10 -1.17875e-10 -1.78744e-09
0.547 0.00713543 0.0147525 -0.00876562 -0.143321 -0.0234852 9.79665 -3.34716e-10 -1.13093e-10 -1.79316e-09
0.548 0.00371478 0.0127412 0.0120558 -0.239332 -0.0431028 9.97293 -3.37025e-10 -1.09716e-10 -1.79609e-09
0.549 0.00851379 0.00915233 -0.00796583 -0.43156 -0.224493 9.82788 -3.39421e-10 -1.0756e-10 -1.79599e-09
0.55 0.00137293 0.0271927 0.00191973 -0.372563 -0.192978 9.78232 -3.41901e-10 -1.06507e-10 -1.79263e-09
0.551 -0.0196912 -0.000195157 -0.0014265 -0.339481 -0.230201 9.78906 -3.44461e-10 -1.06503e-10 -1.78583e-09
0.554 0.00229837 0.010341 -0.00854724 -0.401114 -0.364398 9.98607 -3.52591e-10 -1.12548e-10 -1.74289e-09
0.555 0.0091733 0.00852088 0.00571779 -0.323344 -0.263823 9.79077 -3.5544e-10 -1.16513e-10 -1.72048e-09
0.556 -0.00122115 -0.00242266 -0.00744859 -0.082261 -0.19447 10.1981 -3.58355e-10 -1.21418e-10 -1.69376e-09
0.557 -0.00558213 0.0153042 -0.0170916 -0.0145852 -0.366214 10.0367 -3.61332e-10 -1.27242e-10 -1.66257e-09
0.558 -0.00275554 0.00948636 -0.000764759 -0.208153 0.130562 9.9536 -3.64368e-10 -1.33963e-10 -1.62677e-09
0.56 0.00476101 0.0112018 -0.0103687 -0.207883 -0.134292 10.1098 -3.70611e-10 -1.49999e-10 -1.54075e-09
0.561 -5.79796e-07 -0.00147908 -0.008075 -0.268528 0.109139 9.74453 -3.73813e-10 -1.59267e-10 -1.49028e-09
0.562 0.00617932 -0.00668187 -0.00225609 -0.145947 -0.0805639 9.87203 -3.77065e-10 -1.69336e-10 -1.43466e-09
0.563 0.000222329 -0.016081 0.00523785 -0.0888241 -0.203086 9.95939 -3.80366e-10 -1.8018e-10 -1.37379e-09
0.564 -0.00602292 0.0107769 0.00386851 -0.196205 -0.294754 9.63755 -3.83713e-10 -1.91776e-10 -1.30755e-09
0.565 0.0190692 0.0298969 -0.0148756 0.0766236 -0.044636 9.97803 -3.87105e-10 -2.04097e-10 -1.23583e-09
0.566 -0.0127581 0.0129764 0.0191343 -0.248303 -0.125758 9.85021 -3.9054e-10 -2.17118e-10 -1.15853e-09
0.567 0.00188843 0.016474 0.00742292 -0.333047 -0.292252 10.0017 -3.94016e-10 -2.30799e-10 -1.07556e-09
0.568 -0.0162379 0.0169679 0.0123942 -0.160698 -0.327278 9.79536 -3.97531e-10 -2.45086e-10 -9.86816e-10
0.569 0.0205882 0.0194683 0.00482466 -0.172252 -0.264942 9.84653 -4.01084e-10 -2.59924e-10 -8.92228e-10
0.57 0.00975411 0.00102507 0.00285561 -0.351426 -0.289719 9.96546 -4.04672e-10 -2.75252e-10 -7.92571e-10
0.571 -0.00328742 0.00403958 -0.00579996 -0.0520075 -0.14115 10.0643 -4.08292e-10 -2.91049e-10 -6.88574e-10
0.573 -0.00211127 0.0139436 0.00154165 -0.197229 -0.0976828 9.82199 -4.15619e-10 -3.24055e-10 -4.70202e-10
0.577 -0.00273513 0.00249943 0.000986086 -0.364421 -0.228302 9.781 -4.30563e-10 -3.95081e-10 -8.42447e-12
0.578 -0.00842545 0.0143752 0.00521571 -0.0549103 -0.18943 10.0766 -4.34349e-10 -4.13686e-10 1.09183e-10
0.579 -0.012609 -0.0207136 0.00326588 -0.129701 -0.105583 9.83248 -4.38151e-10 -4.32575e-10 2.26736e-10
0.58 0.00228066 -0.000954266 0.0037653 -0.0431952 -0.245052 9.88574 -4.4197e-10 -4.51725e-10 3.43815e-10
0.581 0.0016452 0.00943473 -0.00109437 -0.193431 0.0356581 9.96232 -4.45802e-10 -4.71116e-10 4.60036e-10
0.582 0.00232535 -0.00391715 0.00417844 -0.381544 -0.103121 9.95534 -4.49648e-10 -4.90728e-10 5.7503e-10
0.583 -0.00742921 0.0157908 0.0066647 -0.0452173 0.100911 9.83316 -4.53506e-10 -5.10545e-10 6.88452e-10
0.584 0.00387749 0.00112267 0.00495556 -0.457494 -0.249126 9.74064 -4.57375e-10 -5.30551e-10 7.99979e-10
0.585 0.00655594 0.00656655 0.00639141 -0.0515152 -0.317076 9.99618 -4.61254e-10 -5.5073e-10 9.093e-10
0.586 -0.00788592 0.0100694 0.00765272 -0.0884626 -0.304515 9.72757 -4.65143e-10 -5.7107e-10 1.01613e-09
0.587 0.00876757 0.0255478 0.00872084 -0.283247 -0.375625 9.78518 -4.69041e-10 -5.91556e-10 1.12019e-09
0.588 -0.0179417 0.0102977 -0.0110462 -0.154255 -0.0220791 9.68641 -4.72946e-10 -6.12178e-10 1.22121e-09
0.589 -0.0068743 0.0131533 0.00785206 -0.293095 -0.0959011 9.69685 -4.76859e-10 -6.32927e-10 1.31897e-09
0.59 -0.00376822 -0.0133997 0.00248205 -0.252255 -0.0991739 9.82717 -4.80779e-10 -6.53813e-10 1.41321e-09
0.591 0.00162477 -0.00186807 0.00652275 -0.244053 -0.057389 9.86455 -4.84705e-10 -6.74885e-10 1.50373e-09
0.592 0.00797892 0.000571233 -0.00170531 -0.231948 0.0267441 9.91285 -4.88637e-10 -6.96212e-10 1.59029e-09
0.593 0.00526299 0.00490121 0.00598529 -0.533428 -0.260904 10.0594 -4.92573e-10 -7.17832e-10 1.67268e-09
0.594 -0.0116027 0.00202405 -0.00955227 -0.228363 0.0513612 9.87771 -4.96514e-10 -7.39695e-10 1.75073e-09
0.595 -0.00373093 0.0234878 0.0100054 -0.144353 -0.28715 9.79013 -5.0046e-10 -7.6167e-10 1.82425e-09
0.596 -0.00247889 0.00218964 0.0190505 -0.348868 -0.332338 10.0904 -5.04409e-10 -7.83608e-10 1.8931e-09
0.597 0.0234929 -0.000580536 0.0012379 -0.0964576 -0.0270624 10.3093 -5.08362e-10 -8.05411e-10 1.95709e-09
0.598 -0.00684268 0.00160749 0.0140593 -0.178048 -0.492317 9.9473 -5.12319e-10 -8.2705e-10 2.0161e-09
0.599 -0.00561707 -0.00899302 0.00269362 -0.264028 -0.188442 9.96219 -5.16279e-10 -8.48536e-10 2.06996e-09
0.6 -0.00346932 0.0100535 0.00715745 -0.15811 -0.208957 9.77618 -5.20242e-10 -8.69891e-10 2.11854e-09
0.601 0.00235297 0.00578168 -0.00164395 -0.148164 -0.0513975 9.82832 -5.24207e-10 -8.91134e-10 2.16171e-09
0.602 -0.00568193 -0.0112448 -0.0055057 -0.356896 0.0546294 9.94763 -5.28175e-10 -9.12286e-10 2.19932e-09
0.603 -0.00837312 0.0197251 -0.000624543 -0.347609 -0.380813 9.95085 -5.32146e-10 -9.33363e-10 2.23127e-09
0.604 0.00997938 0.0036962 0.0107317 -0.365426 -0.164639 10.0148 -5.36118e-10 -9.54383e-10 2.25743e-09
0.605 0.00605349 -0.0014985 -0.00755324 -0.169146 -0.164963 9.88907 -5.40092e-10 -9.75358e-10 2.27771e-09
0.606 0.00766205 -0.011107 -0.00494087 -0.284503 -0.029389 9.94554 -5.44067e-10 -9.96302e-10 2.29199e-09
0.607 -0.00341964 0.0064636 -0.0258374 -0.330346 -0.0298407 10.1116 -5.48044e-10 -1.01722e-09 2.30019e-09
0.608 0.00457093 0.0213351 -0.00798244 -0.180079 -0.198847 9.96161 -5.52022e-10 -1.03813e-09 2.3022e-09
0.609 -0.000370448 0.0175406 0.00714326 -0.346606 -0.122343 9.87613 -5.56002e-10 -1.05903e-09 2.29794e-09
0.61 0.0010444 0.0135871 0.0230343 0.0125709 -0.0846415 9.88293 -5.59982e-10 -1.07993e-09 2.28734e-09
0.611 -0.0162935 -0.00215179 0.000847417 -0.0901111 -0.362677 9.82618 -5.63964e-10 -1.10083e-09 2.2703e-09
0.612 0.00415328 0.0197242 0.0119077 -0.281115 -0.189507 9.7266 -5.67946e-10 -1.12174e-09 2.24734e-09
0.613 0.00887539 -0.0159025 0.00378744 -0.303329 -0.230576 9.80923 -5.71925e-10 -1.14257e-09 2.21908e-09
0.614 -0.00276167 0.016887 -0.00255027 -0.221392 -0.0555379 9.85157 -5.75895e-10 -1.16326e-09 2.18611e-09
0.615 -0.0039972 0.00229509 0.00738207 -0.106025 -0.442655 9.88995 -5.79853e-10 -1.1837e-09 2.14896e-09
0.616 0.00481988 0.0153976 -0.00044132 -0.124762 -0.204491 9.79647 -5.83795e-10 -1.20379e-09 2.10815e-09
0.617 -0.00796882 0.00682625 -0.00759753 -0.179117 0.0916651 9.97768 -5.87717e-10 -1.22344e-09 2.06415e-09
0.619 0.0219558 0.00738696 -0.00426016 -0.379086 -0.218775 9.81078 -5.95485e-10 -1.26126e-09 1.96831e-09
0.62 6.64292e-05 0.0321934 0.00710238 -0.381844 -0.419855 9.69762 -5.99325e-10 -1.27938e-09 1.91728e-09
0.621 -0.00232985 0.020336 -0.0161192 -0.160567 -0.225067 9.68833 -6.03131e-10 -1.29694e-09 1.8647e-09
0.622 0.0178918 -0.01446 -0.00100059 -0.0813685 -0.19192 9.79942 -6.06899e-10 -1.31388e-09 1.81089e-09
0.623 0.00536797 0.0183298 -0.0072505 -0.122145 -0.271755 9.68541 -6.10627e-10 -1.33015e-09 1.75617e-09
0.626 0.00124912 0.0151529 -0.00233509 -0.366786 -0.302895 9.95046 -6.21542e-10 -1.37433e-09 1.58942e-09
0.627 0.00602191 0.00394841 0.0146119 -0.211581 -0.351444 9.7676 -6.25082e-10 -1.38735e-09 1.53382e-09
0.628 -0.0157629 0.000253569 0.0215346 -0.269506 -0.159331 9.74413 -6.28568e-10 -1.39946e-09 1.47861e-09
0.629 0.00134544 0.0253741 0.0030588 -0.39545 -0.345068 9.76205 -6.31998e-10 -1.41061e-09 1.424e-09
0.63 -0.0180389 -0.00110833 0.00558549 -0.149195 -0.068288 9.77035 -6.3537e-10 -1.42075e-09 1.37019e-09
0.631 0.0101394 0.0153379 0.00243043 -0.235596 -0.109205 9.7674 -6.38682e-10 -1.42986e-09 1.31735e-09
0.632 0.00566052 0.0111313 -0.00155073 -0.0484978 -0.326816 10.0427 -6.41932e-10 -1.4379e-09 1.26568e-09
0.633 -0.0140238 0.0176226 -0.0012618 -0.173351 -0.188942 10.0028 -6.45118e-10 -1.44482e-09 1.21534e-09
0.634 0.0115057 -0.000844273 -0.00809938 -0.16943 0.0290574 9.82486 -6.48237e-10 -1.45061e-09 1.16647e-09
0.635 -0.00387724 -0.00744877 0.0117454 -0.211697 -0.276645 9.70626 -6.51288e-10 -1.45522e-09 1.11923e-09
0.636 -0.00217508 0.00925659 -0.010685 -0.0261515 -0.0860111 9.92468 -6.54269e-10 -1.45863e-09 1.07376e-09
0.637 0.0228044 0.0068473 -0.00974369 -0.298823 -0.226037 9.78316 -6.57179e-10 -1.46082e-09 1.03019e-09
0.638 -0.0209459 -0.00537003 0.00898347 -0.0575328 -0.196242 9.98177 -6.60016e-10 -1.46181e-09 9.88632e-10
0.639 -0.0170171 0.00501902 -0.0134047 -0.134282 -0.171315 9.74352 -6.62778e-10 -1.46164e-09 9.49203e-10
0.64 0.00206916 -0.00250611 0.0178653 -0.259301 -0.177035 9.96392 -6.65464e-10 -1.46036e-09 9.12006e-10
0.641 0.00913763 0.00150868 -0.007344 -0.387545 -0.214937 9.95082 -6.68072e-10 -1.45793e-09 8.77131e-10
0.642 -0.00982383 0.00355038 0.0215848 -0.23015 -0.034603 9.52878 -6.70601e-10 -1.45423e-09 8.44684e-10
0.643 0.00315495 -0.00460453 -0.00438922 -0.272241 -0.0253128 9.93593 -6.7305e-10 -1.44909e-09 8.14784e-10
0.644 -0.00351837 0.0118927 -0.0221911 -0.26927 -0.282904 9.83941 -6.75417e-10 -1.44238e-09 7.87503e-10
0.645 -0.0247625 0.00506426 0.00751248 -0.211025 -0.311407 9.85145 -6.77702e-10 -1.43403e-09 7.62955e-10
0.646 0.0108794 0.00828315 -0.0043413 -0.128468 -0.243896 10.094 -6.79903e-10 -1.42401e-09 7.41194e-10
0.647 -0.025179 0.00347675 0.0100484 -0.224861 -0.057773 9.68006 -6.82019e-10 -1.41234e-09 7.22314e-10
0.648 0.00109836 -0.00222517 -0.00625112 -0.0366846 -0.10785 9.69381 -6.84049e-10 -1.39903e-09 7.06365e-10
0.649 -0.00564751 -0.0145543 -0.00150992 -0.378808 -0.325682 9.92854 -6.85992e-10 -1.38407e-09 6.93424e-10
0.65 0.000984073 -0.00204889 -0.00580061 -0.199192 -0.12723 10.0794 -6.87847e-10 -1.36748e-09 6.83544e-10
0.651 -0.00651019 0.0288164 -0.0150621 -0.444337 -0.0429008 9.78419 -6.89614e-10 -1.34925e-09 6.76789e-10
0.653 -0.00175161 -0.00761912 0.00352698 -0.0912932 -0.203765 9.82992 -6.92876e-10 -1.3079e-09 6.72858e-10
0.654 -0.0121971 0.00774271 -0.0149874 -0.190372 -0.414988 9.8383 -6.94378e-10 -1.2849e-09 6.75486e-10
0.655 -0.0206536 0.0114357 0.00582442 -0.342716 0.0365938 9.99753 -6.95803e-10 -1.26053e-09 6.80866e-10
0.656 -0.00304888 0.0056038 0.0069152 -0.423204 -0.410591 9.91622 -6.97157e-10 -1.23489e-09 6.88783e-10
0.657 0.000591234 0.00728991 -0.00598222 -0.391363 0.164622 9.92795 -6.98444e-10 -1.20807e-09 6.99044e-10
0.658 -0.00169564 0.00152569 -0.0173364 -0.506979 -0.000610054 9.83181 -6.99671e-10 -1.18019e-09 7.11466e-10
0.659 0.00322456 -0.00401564 0.00586542 -0.178228 -0.00912066 9.69329 -7.00841e-10 -1.15131e-09 7.25881e-10
0.66 -0.00470739 0.0250925 -0.018551 -0.234624 -0.156063 9.90211 -7.0196e-10 -1.12152e-09 7.42137e-10
0.661 0.0150174 -0.00193439 0.00700943 -0.26813 -0.17843 9.74938 -7.03031e-10 -1.09089e-09 7.60089e-10
0.662 -0.00814546 0.00713329 0.0270866 -0.271144 -0.0345747 9.65297 -7.04058e-10 -1.05946e-09 7.79605e-10
0.663 0.00272067 -0.00185938 0.000821627 -0.235647 -0.0254873 9.94429 -7.05044e-10 -1.02725e-09 8.00557e-10
0.664 -0.0214577 -0.00401377 0.012872 -0.22823 -0.424045 9.8555 -7.05992e-10 -9.94299e-10 8.22827e-10
0.665 0.0109428 0.0144115 -0.00300825 -0.172699 0.138492 9.91967 -7.06905e-10 -9.60648e-10 8.46306e-10
0.666 -0.00782528 0.0044948 0.0128093 -0.19175 -0.0934057 9.61839 -7.07787e-10 -9.26376e-10 8.70902e-10
0.667 -0.0108639 0.0156614 -0.0118689 -0.376099 -0.200708 9.77467 -7.08639e-10 -8.91571e-10 8.96541e-10
0.668 0.0114616 0.0127638 0.00526916 -0.402414 -0.245543 9.79981 -7.09463e-10 -8.56301e-10 9.2314e-10
0.669 -0.0121769 0.00540376 0.00929136 -0.172929 -0.08151 9.76647 -7.10263e-10 -8.20609e-10 9.50634e-10
0.67 0.00666123 0.0110326 -0.000656615 -0.104789 -0.158565 9.82493 -7.11039e-10 -7.84524e-10 9.78959e-10
0.671 0.00649278 0.0200644 -0.00446491 -0.204852 -0.0997536 9.92096 -7.11793e-10 -7.48069e-10 1.00804e-09
0.672 0.00411476 0.0140164 -0.00333814 -0.12524 -0.10009 9.96265 -7.12528e-10 -7.11271e-10 1.03782e-09
0.673 -0.00951721 0.00773564 0.00322582 -0.101288 -0.0963858 9.6557 -7.13244e-10 -6.74154e-10 1.06825e-09
0.674 0.00293721 0.00620505 -0.000227199 -0.303151 -0.29589 9.88008 -7.13944e-10 -6.36744e-10 1.09927e-09
0.675 -0.0200929 0.0102837 0.0108593 -0.238734 -0.299254 10.0668 -7.14627e-10 -5.99062e-10 1.13084e-09
0.676 0.00848587 0.0131053 0.0112309 -0.0154 0.00923751 9.9026 -7.15296e-10 -5.61132e-10 1.16292e-09
0.677 -0.00848724 0.00039302 0.0176899 -0.0289687 0.00467304 9.82295 -7.15948e-10 -5.2305e-10 1.19532e-09
0.678 0.000597932 0.016688 0.0139263 -0.237106 -0.0569989 9.7405 -7.16578e-10 -4.84908e-10 1.22785e-09
0.679 -0.00163583 0.0173634 -0.00237401 -0.271859 0.0515659 10.2796 -7.17185e-10 -4.46796e-10 1.26035e-09
0.68 -0.0232807 0.0176134 0.0120423 -0.216193 -0.354303 9.94887 -7.17764e-10 -4.08797e-10 1.29264e-09
0.681 -0.0174226 0.0106538 0.000884644 -0.125804 0.00124698 9.71582 -7.18313e-10 -3.70991e-10 1.32457e-09
0.682 -0.00877268 0.00852428 0.00212869 -0.355391 -0.33076 9.74412 -7.18829e-10 -3.33454e-10 1.356e-09
0.683 0.000248704 -0.00921734 0.0129001 0.107509 -0.136147 9.70305 -7.1931e-10 -2.96259e-10 1.38677e-09
0.684 0.000725829 0.0125925 -0.0143226 -0.194166 -0.134195 9.97578 -7.19752e-10 -2.5948e-10 1.41676e-09
0.685 -0.0192441 0.00521638 -0.00302964 -0.226315 -0.0991099 9.88445 -7.20153e-10 -2.23213e-10 1.44583e-09
0.687 0.0125019 0.0137551 0.0148637 -0.406104 0.125089 9.7977 -7.20821e-10 -1.52736e-10 1.50069e-09
0.688 0.00333898 -0.00890865 0.016548 -0.0843915 -0.202262 9.83765 -7.21084e-10 -1.18744e-10 1.52624e-09
0.689 -0.00513528 0.00359246 0.00269012 -0.0945087 -0.0430125 9.86555 -7.21295e-10 -8.55974e-11 1.55038e-09
0.69 -0.0180629 0.0167505 0.0104128 -0.165026 -0.00996364 9.77818 -7.21454e-10 -5.32104e-11 1.57301e-09
0.691 -0.00588576 0.00476079 -0.00332265 -0.108559 -0.10685 9.58138 -7.21558e-10 -2.14965e-11 1.59407e-09
0.692 -0.00835525 -0.000387064 -0.000933672 -0.412501 0.143792 10.0033 -7.21604e-10 9.57079e-12 1.61343e-09
0.693 -0.00339973 -0.00122863 0.0272415 -0.251496 0.0123009 9.67338 -7.21592e-10 3.99557e-11 1.63102e-09
0.694 0.00979722 0.0127081 0.00967979 -0.406911 -0.0472197 9.75208 -7.21519e-10 6.95956e-11 1.64676e-09
0.695 -2.43566e-05 0.00120308 -0.00237452 -0.164716 -0.250206 9.81491 -7.21383e-10 9.84247e-11 1.66055e-09
0.696 -0.00787998 -0.0154239 -0.000144408 -0.0460647 -0.262514 10.0692 -7.21182e-10 1.2638e-10 1.67231e-09
0.697 -0.00664133 0.00181913 0.0110266 -0.297336 -0.110696 10.0166 -7.20915e-10 1.53402e-10 1.68196e-09
0.698 -0.00745406 0.0170074 -0.0153188 -0.119077 -0.352711 9.86103 -7.2058e-10 1.79436e-10 1.68943e-09
0.699 -0.0117937 0.0169028 0.012836 -0.131526 -0.215778 9.95872 -7.20176e-10 2.04428e-10 1.69464e-09
0.7 -0.00794066 -0.00242469 0.00393053 -0.0910974 -0.0867209 9.81 -7.197e-10 2.28332e-10 1.69753e-09
0.701 -0.0288506 -0.00436137 -0.0147533 -0.350017 -0.189075 9.76873 -7.19151e-10 2.51101e-10 1.69803e-09
0.702 -0.00173889 0.0112924 -0.00617371 -0.237802 -0.359313 9.93683 -7.18528e-10 2.72695e-10 1.69608e-09
0.703 0.00580208 0.000244502 6.11295e-05 -0.356322 -0.183575 9.83316 -7.1783e-10 2.93076e-10 1.69163e-09
0.704 0.0153265 0.0149577 0.000734688 -0.42527 -0.39612 9.83206 -7.17054e-10 3.12207e-10 1.68461e-09
0.705 -0.00994928 0.0170384 -0.00440759 -0.095558 0.091635 9.89717 -7.16201e-10 3.30055e-10 1.67498e-09
0.706 0.00196049 0.0128473 -0.00204152 -0.278037 -0.182561 9.92845 -7.15267e-10 3.46589e-10 1.66268e-09
0.707 0.000494635 -0.00680183 0.00278774 -0.270459 -0.263859 9.72753 -7.14253e-10 3.61781e-10 1.64767e-09
0.708 -0.012524 0.0226491 0.000266156 -0.120727 -0.158782 9.94885 -7.13158e-10 3.75606e-10 1.6299e-09
0.709 0.026761 -0.019235 -0.00300701 -0.247361 -0.0568737 9.86829 -7.11979e-10 3.88051e-10 1.60932e-09
0.71 -0.0217135 0.00130311 0.00251245 -0.195072 0.0553356 10.1859 -7.10716e-10 3.9912e-10 1.58589e-09
0.711 -0.00611969 -0.00528888 0.00422934 -0.364291 -0.176995 9.91229 -7.09368e-10 4.08824e-10 1.55957e-09
0.712 0.0170772 -0.00226684 0.0116003 -0.133171 -0.295338 9.99681 -7.07934e-10 4.17157e-10 1.5303e-09
0.713 -0.00504692 0.00146199 -0.0146545 -0.297838 -0.249113 9.94718 -7.06412e-10 4.2408e-10 1.49806e-09
0.714 0.00497174 -0.00353226 0.00648403 -0.106994 -0.233908 9.95404 -7.04803e-10 4.29529e-10 1.46281e-09
0.715 -0.00228599 0.00781468 -0.00358964 -0.274616 -0.240165 9.81942 -7.03105e-10 4.33448e-10 1.42453e-09
0.716 -0.0281916 0.00282056 0.00291302 -0.216893 -0.130769 9.91699 -7.01318e-10 4.35806e-10 1.3832e-09
0.717 0.0140122 0.00102689 0.00586425 -0.115628 -0.199542 9.94572 -6.99451e-10 4.36649e-10 1.3392e-09
0.718 0.00798983 -0.00727212 -0.00857725 -0.261371 -0.164038 9.72848 -6.97517e-10 4.36018e-10 1.29289e-09
0.719 -0.0118536 0.00470159 -0.00784108 -0.346072 -0.183327 9.87709 -6.95526e-10 4.33949e-10 1.24462e-09
0.72 -0.00575876 0.0110176 -0.00553117 -0.316843 -0.238086 9.74841 -6.93485e-10 4.3047e-10 1.1947e-09
0.721 -0.00820227 0.0156592 -0.00673407 -0.0326528 -0.160828 10.1813 -6.91405e-10 4.25603e-10 1.14342e-09
0.722 0.011185 0.0150109 -0.0200784 -0.132396 -0.0906987 9.94864 -6.89294e-10 4.19365e-10 1.09108e-09
0.723 -0.00242845 -0.00206796 0.00283726 -0.279392 0.0781858 9.86732 -6.87158e-10 4.11769e-10 1.03793e-09
0.725 -0.0112192 0.0233704 -0.000720459 -0.255241 -0.230161 9.90031 -6.82845e-10 3.9254e-10 9.30173e-10
0.726 -0.00189059 0.00821126 -0.000554238 -0.212544 -0.19429 9.79808 -6.8068e-10 3.80918e-10 8.76024e-10
0.727 0.0137279 0.00389383 -0.0145106 -0.421248 -0.156165 9.82084 -6.78518e-10 3.67962e-10 8.21972e-10
0.728 0.00288707 0.00114171 0.008041 -0.398489 0.182605 9.8166 -6.76364e-10 3.53673e-10 7.68212e-10
0.729 0.0122768 0.0254601 -0.00485639 -0.351627 -0.176411 9.91229 -6.74225e-10 3.38048e-10 7.14926e-10
0.73 -0.0138731 0.00229571 -0.00125636 -0.424211 -0.25778 9.83867 -6.72104e-10 3.21085e-10 6.62288e-10
0.731 0.0132686 -0.00254204 -0.00556815 -0.186192 -0.0772479 9.99361 -6.70007e-10 3.02777e-10 6.10459e-10
0.732 0.00753089 -0.0124904 0.00536248 -0.186985 -0.235796 9.95594 -6.67938e-10 2.83102e-10 5.59596e-10
0.733 0.00370882 -0.00376295 0.0169904 -0.217863 -0.237564 10.1692 -6.65902e-10 2.62e-10 5.0984e-10
0.734 0.00051621 0.0202693 -0.00964866 -0.421508 -0.303368 9.9016 -6.63901e-10 2.39385e-10 4.6132e-10
0.735 -0.00847713 0.00686644 -0.00810806 -0.216105 0.000117704 9.61698 -6.61941e-10 2.15196e-10 4.14163e-10
0.736 -0.00490746 0.0083574 7.34177e-05 -0.0646548 -0.233488 9.9758 -6.60024e-10 1.89458e-10 3.68478e-10
0.737 -0.00643872 -0.00952312 0.00150829 -0.171992 -0.179973 10.101 -6.5815e-10 1.62355e-10 3.24575e-10
0.738 -0.012322 0.00668291 0.0260407 -0.455683 -0.0451143 9.81816 -6.56317e-10 1.34096e-10 2.82712e-10
0.739 -0.000838694 -0.00868076 0.0125538 -0.235635 -0.166682 9.81462 -6.54525e-10 1.04839e-10 2.43173e-10
0.74 -0.0165109 0.0119379 -0.0172217 -0.377225 -0.0700657 9.75769 -6.52772e-10 7.46709e-11 2.06221e-10
0.741 -0.00628245 0.0198557 0.00594266 -0.364221 -0.240338 9.7976 -6.51059e-10 4.36303e-11 1.72078e-10
0.742 0.00229849 0.0170656 0.0132325 -0.461426 0.000215619 9.76061 -6.49382e-10 1.17433e-11 1.4096e-10
0.743 -0.0164381 0.00540626 0.0122037 -0.0809149 -0.138181 10.2753 -6.47743e-10 -2.09671e-11 1.13093e-10
0.744 0.00880145 0.00876471 0.00305062 -0.326435 -0.13077 9.83837 -6.46138e-10 -5.44791e-11 8.86869e-11
0.745 0.00865327 0.00837929 0.00371525 -0.454273 -0.0788601 9.93087 -6.44569e-10 -8.8771e-11 6.79275e-11
0.746 -0.011428 0.000223788 0.00936564 -0.316344 -0.394315 10.167 -6.43032e-10 -1.23821e-10 5.10115e-11
0.747 -0.0107846 0.0014782 -0.00307468 -0.481937 -0.348258 9.869 -6.41528e-10 -1.59609e-10 3.81145e-11
0.748 -0.00626334 0.005506 0.00346431 -0.186363 -0.459902 9.91179 -6.40055e-10 -1.96111e-10 2.94059e-11
0.749 -0.00666662 0.000498223 0.00787298 -0.211396 -0.323507 9.79604 -6.38613e-10 -2.33306e-10 2.50523e-11
0.75 0.00957378 0.01128 0.00309798 -0.147262 -0.184272 10.0822 -6.372e-10 -2.71172e-10 2.52121e-11
0.751 -0.0023118 0.00389663 0.00764732 -0.215993 -0.184383 9.76615 -6.35816e-10 -3.09687e-10 3.00326e-11
0.752 -0.0119187 0.00766427 -0.00179329 -0.282179 -0.271861 9.82458 -6.34459e-10 -3.48828e-10 3.96557e-11
0.753 -0.0174234 -0.00043867 0.00993308 -0.575068 -0.0835951 9.75785 -6.33129e-10 -3.88573e-10 5.42189e-11
0.754 0.00761334 0.010069 -0.0201403 -0.240753 0.0559986 9.73519 -6.31825e-10 -4.28901e-10 7.38507e-11
0.755 0.0132116 -0.00136932 0.00188692 -0.214756 -0.297284 9.94431 -6.30545e-10 -4.69788e-10 9.86751e-11
0.756 -0.00557847 -0.00698976 0.00055471 -0.223435 -0.190323 9.9367 -6.29287e-10 -5.10996e-10 1.28376e-10
0.757 -0.00914222 -0.00836606 -0.0186192 -0.356488 -0.450061 9.71532 -6.28046e-10 -5.52284e-10 1.62653e-10
0.758 -0.00423314 0.00853859 -0.00422401 -0.365297 -0.0499474 9.90335 -6.26818e-10 -5.93412e-10 2.01227e-10
0.759 0.00846723 -0.00894306 -0.0161014 -0.28146 -0.135949 9.81522 -6.25602e-10 -6.34159e-10 2.43831e-10
0.76 0.00471278 0.00196708 0.0077002 -0.240481 -0.137434 9.72275 -6.24393e-10 -6.7435e-10 2.90222e-10
0.761 0.013036 -0.000507481 0.00847842 -0.139761 -0.362789 9.92208 -6.2319e-10 -7.13848e-10 3.40185e-10
0.762 -0.00310681 0.00533125 0.0129223 -0.473607 -0.195082 9.84259 -6.2199e-10 -7.5253e-10 3.93508e-10
0.764 -0.00994869 0.00258183 -0.0145944 -0.330501 0.0448714 10.0665 -6.19593e-10 -8.26909e-10 5.09509e-10
0.765 0.000214987 0.0177507 0.00508652 -0.419867 -0.086039 9.98321 -6.18393e-10 -8.62314e-10 5.7183e-10
0.766 0.00348545 -0.0246269 0.0101827 -0.254645 -0.13449 9.97652 -6.17189e-10 -8.96344e-10 6.36815e-10
0.767 0.00195183 -0.00230232 0.0118201 -0.322636 -0.389546 9.69802 -6.15981e-10 -9.2887e-10 7.04307e-10
0.768 -0.00212048 0.0190068 0.00248803 -0.341327 -0.176264 9.87844 -6.14767e-10 -9.59775e-10 7.74169e-10
0.769 0.0033615 0.0146547 -0.00938193 -0.485714 -0.471649 10.0436 -6.13547e-10 -9.88947e-10 8.46267e-10
0.77 -0.017361 -0.0153759 -0.00157485 -0.480641 -0.24427 9.74709 -6.1232e-10 -1.01628e-09 9.20481e-10
0.771 -0.00711626 0.0154545 0.0173009 -0.247571 -0.186843 9.68472 -6.11085e-10 -1.04168e-09 9.96693e-10
0.772 -0.00863857 0.000328974 -0.0123739 -0.12197 -0.0596715 9.84297 -6.09842e-10 -1.06504e-09 1.0748e-09
0.773 -0.00736067 0.0101147 0.00054376 -0.426973 -0.288495 9.82925 -6.0859e-10 -1.08629e-09 1.1547e-09
0.775 -0.0176994 0.013774 0.00353578 -0.463056 -0.134886 9.91719 -6.06058e-10 -1.12209e-09 1.31951e-09
0.776 -0.00488674 -0.00253854 -0.00441929 -0.216826 -0.0554363 9.88007 -6.04777e-10 -1.1365e-09 1.40425e-09
0.777 -0.0189534 0.00450855 0.00526453 -0.171365 -0.168709 9.89081 -6.03486e-10 -1.14847e-09 1.49044e-09
0.778 -0.00130782 -0.00615028 -0.0111779 -0.197411 -0.334611 9.78913 -6.02185e-10 -1.15796e-09 1.57801e-09
0.779 -0.0112885 0.0157197 -0.00393761 -0.548903 -0.190292 9.94459 -6.00877e-10 -1.1651e-09 1.66644e-09
0.78 -0.00011543 -0.00102834 -0.00543224 -0.122124 -0.141684 9.90769 -5.99565e-10 -1.17009e-09 1.75525e-09
0.781 -0.0107035 0.0193694 0.0119744 -0.167845 -0.433167 9.80261 -5.98251e-10 -1.17312e-09 1.84396e-09
0.782 -0.00921474 0.00708615 -0.00242483 -0.224639 -0.495154 10.0071 -5.96939e-10 -1.1744e-09 1.93215e-09
0.783 0.000704323 0.0134361 -0.0194875 -0.227608 -0.0961962 10.0408 -5.95629e-10 -1.17402e-09 2.01939e-09
0.784 -0.00435216 0.00900871 0.0101548 0.104139 -0.0928504 9.90111 -5.94324e-10 -1.17201e-09 2.1053e-09
0.79 -0.0132305 -0.00868878 0.00945708 -0.468652 -0.118237 9.81827 -5.86674e-10 -1.12557e-09 2.57476e-09
0.791 0.0114436 0.0200668 0.00410438 -0.391648 0.0936798 9.93332 -5.85439e-10 -1.11275e-09 2.64259e-09
0.792 -0.00215432 -0.00879966 0.0115326 -0.282075 -0.269132 9.78454 -5.84217e-10 -1.0987e-09 2.70674e-09
0.793 -0.00747023 0.0135132 0.00724367 -0.309947 -0.0673259 9.86149 -5.83008e-10 -1.08353e-09 2.767e-09
0.794 0.0016125 0.0188562 0.0162357 -0.437632 -0.0467916 9.75416 -5.81814e-10 -1.06729e-09 2.82314e-09
0.796 0.00902767 0.00879342 -0.00398857 -0.0212834 -0.291128 9.94085 -5.79467e-10 -1.03188e-09 2.92229e-09
0.797 0.00668787 0.00977124 -0.00369286 -0.327527 -0.208174 9.86 -5.78316e-10 -1.01283e-09 2.96492e-09
0.798 0.0105792 -0.0164942 -0.003403 -0.444118 -0.0826921 9.87227 -5.77179e-10 -9.92953e-10 3.00271e-09
0.799 -0.00309547 -0.0012622 0.00586548 -0.345622 -0.12175 9.84799 -5.76056e-10 -9.72301e-10 3.03548e-09
0.8 0.00295824 0.00483357 -0.015039 -0.247308 -0.141315 9.81474 -5.74949e-10 -9.50917e-10 3.06308e-09
0.801 0.00675011 -0.00373332 -0.00622282 -0.213235 -0.244822 9.81472 -5.73855e-10 -9.28841e-10 3.08538e-09
0.802 -0.000449556 0.0115888 -0.0160316 -0.371235 -0.124251 10.06 -5.72768e-10 -9.06248e-10 3.10255e-09
0.803 -0.00762815 0.0279509 0.00315562 -0.447301 -0.545625 9.69632 -5.7168e-10 -8.83296e-10 3.11473e-09
0.804 -0.0202964 0.00428951 -0.0118048 -0.444744 -0.186887 9.93785 -5.70584e-10 -8.6012e-10 3.12206e-09
0.805 -0.0102424 0.00365288 -0.00398232 -0.40352 -0.0583879 9.92706 -5.69474e-10 -8.36828e-10 3.12467e-09
0.806 0.00240127 0.011147 -0.00113872 -0.123877 -0.0758594 9.90274 -5.68343e-10 -8.13517e-10 3.12268e-09
0.807 0.0102059 0.00298 -0.0104467 -0.268165 -0.214608 9.95617 -5.67186e-10 -7.90303e-10 3.11616e-09
0.808 -0.0164955 0.00123772 0.0124426 -0.187004 -0.0421048 9.81664 -5.65997e-10 -7.67326e-10 3.10524e-09
0.809 0.00355341 0.00414372 0.0114452 -0.10594 0.00640441 9.91689 -5.64773e-10 -7.44735e-10 3.09e-09
0.81 0.00794873 0.00417787 -0.0165198 -0.197445 -0.125059 9.74669 -5.63507e-10 -7.22659e-10 3.07052e-09
0.811 0.00907822 0.00934672 -0.00447949 -0.184982 -0.116881 9.92945 -5.62196e-10 -7.01197e-10 3.04689e-09
0.812 -0.00276614 0.00311743 -0.00322491 -0.275055 -0.404156 9.95021 -5.60836e-10 -6.80428e-10 3.01916e-09
0.813 -0.000217738 0.0156904 0.00565516 -0.117271 -0.0314447 9.88436 -5.59423e-10 -6.60424e-10 2.9874e-09
0.814 0.00188447 0.00176284 0.00214741 -0.0739174 -0.0702314 9.73276 -5.57953e-10 -6.41255e-10 2.95164e-09
0.815 0.0134755 0.00825241 -0.000508911 -0.295269 -0.240798 9.97068 -5.56424e-10 -6.22987e-10 2.91193e-09
0.816 -0.0129081 -0.00139299 0.019241 -0.125271 0.0393828 10.0693 -5.54833e-10 -6.05684e-10 2.86832e-09
0.817 0.0121845 -0.0103118 -0.00431185 -0.337947 -0.163793 10.0775 -5.53175e-10 -5.89406e-10 2.82083e-09
0.818 0.00373379 0.0222002 -0.00258357 -0.228003 -0.162875 9.99784 -5.5145e-10 -5.74208e-10 2.7695e-09
0.819 0.00371853 0.0114448 -0.00398657 -0.217627 -0.051058 9.87231 -5.49653e-10 -5.60144e-10 2.71435e-09
0.82 -0.0143717 0.00268568 -0.00563673 -0.0608751 -0.0172602 9.77686 -5.47784e-10 -5.47263e-10 2.6554e-09
0.821 0.00419827 0.0158244 0.0179183 -0.113253 -0.223878 9.94212 -5.4584e-10 -5.35609e-10 2.59268e-09
0.822 0.00809716 -0.00194596 0.0102605 -0.226383 -0.126198 9.79324 -5.43826e-10 -5.25091e-10 2.52647e-09
0.823 0.009133 -0.00109453 0.0214374 -0.174676 -0.0555633 9.72639 -5.41748e-10 -5.1562e-10 2.45704e-09
0.824 -0.0108182 0.000455418 0.0198118 -0.238444 0.000712587 9.89698 -5.39611e-10 -5.07116e-10 2.38463e-09
0.825 -0.00813791 -0.0021625 0.0119046 -0.197775 -0.0704821 9.94465 -5.37419e-10 -4.99507e-10 2.30947e-09
0.826 -0.0121997 0.0129235 0.00434462 -0.384028 -0.300743 9.96243 -5.35177e-10 -4.92726e-10 2.23177e-09
0.827 -0.00155166 0.00145769 0.00905258 -0.185892 -0.0174087 9.83754 -5.32889e-10 -4.86738e-10 2.15172e-09
0.828 -0.00330161 -0.0005875 0.01963 -0.203856 -0.0504153 9.81321 -5.30558e-10 -4.81546e-10 2.06949e-09
0.829 0.0108659 0.00807446 0.00254118 -0.348293 -0.11883 9.86971 -5.28187e-10 -4.77174e-10 1.98524e-09
0.83 0.0184847 -0.0144694 0.0121772 -0.330396 -0.0653138 9.84253 -5.2578e-10 -4.73606e-10 1.89912e-09
0.831 -0.0127005 0.008471 -0.0110646 -0.446343 -0.171337 10.0327 -5.23338e-10 -4.70736e-10 1.81125e-09
0.832 -0.00366592 -0.0135333 -0.00970196 -0.32138 -0.265328 9.84204 -5.20866e-10 -4.68389e-10 1.7218e-09
0.833 -0.0104476 0.0159932 0.0128339 -0.116083 -0.259689 9.91656 -5.18365e-10 -4.66388e-10 1.63087e-09
0.834 -0.0098577 -0.00240007 -0.0174178 -0.258313 -0.0620399 10.0172 -5.15838e-10 -4.64614e-10 1.5386e-09
0.835 8.14259e-05 -0.00899519 0.00934778 -0.26318 -0.140994 9.73361 -5.13286e-10 -4.63021e-10 1.44509e-09
0.836 -0.012573 0.0141305 0.0199446 -0.332789 -0.066093 10.0622 -5.10712e-10 -4.61596e-10 1.35044e-09
0.837 -0.00794065 0.026511 -0.0104635 -0.20989 -0.132095 10.1028 -5.08118e-10 -4.60336e-10 1.25472e-09
0.838 -0.00229839 -0.00984607 -0.0102505 -0.395743 -0.215259 9.8348 -5.05505e-10 -4.59238e-10 1.15803e-09
0.839 -0.00674683 0.0164635 -0.00927424 -0.312922 -0.0964057 9.81884 -5.02874e-10 -4.58302e-10 1.06043e-09
0.84 8.6635e-05 0.00860652 0.00331332 -0.218729 -0.323186 9.85319 -5.00227e-10 -4.57524e-10 9.61999e-10
0.841 0.00282947 0.00458909 -0.0084016 -0.249074 0.125475 9.69448 -4.97566e-10 -4.56903e-10 8.63121e-10
0.842 -0.000476789 0.00253633 -0.00130205 -0.495746 -0.11348 10.0428 -4.9489e-10 -4.56435e-10 7.64165e-10
0.843 -0.00903937 0.00807743 -0.0039449 -0.356709 -0.240964 9.83596 -4.92203e-10 -4.56115e-10 6.65486e-10
0.844 0.0173429 0.00104799 -0.00947684 -0.229495 -0.136608 9.98697 -4.89503e-10 -4.5594e-10 5.67417e-10
0.845 -0.0132833 0.0152093 -0.00780316 -0.24319 -0.184518 9.77284 -4.86792e-10 -4.55903e-10 4.7028e-10
0.846 -0.0131494 -0.00627459 -0.0114765 -0.0873857 -0.213581 9.76089 -4.84072e-10 -4.55999e-10 3.74382e-10
0.847 0.00867647 0.00725756 0.0137416 -0.221912 -0.226722 9.85431 -4.81343e-10 -4.56222e-10 2.80018e-10
0.848 -0.0141575 0.016873 -0.0119364 -0.0511041 -0.291455 9.9407 -4.78605e-10 -4.56565e-10 1.87466e-10
0.849 0.0189745 -0.0124194 0.0134568 -0.299202 0.0323994 9.80226 -4.75859e-10 -4.57021e-10 9.69947e-11
0.85 0.0141603 0.0246397 -0.0112957 -0.167139 -0.316951 9.9675 -4.73106e-10 -4.57583e-10 8.85696e-12
0.851 -0.0204415 -0.0112556 0.0134376 -0.21111 0.0370599 9.94131 -4.70347e-10 -4.58232e-10 -7.6704e-11
0.852 -0.00368806 -0.0170756 -0.00892067 -0.179887 -0.151406 9.74136 -4.67582e-10 -4.58936e-10 -1.5946e-10
0.853 0.00891602 0.0147213 0.0170074 -0.173787 -0.298241 9.83351 -4.64811e-10 -4.59652e-10 -2.39198e-10
0.854 0.0186192 0.00699783 -0.00195963 -0.260276 -0.160867 9.65114 -4.62035e-10 -4.60357e-10 -3.15711e-10
0.855 0.0115885 -0.00715124 0.0115324 -0.473597 -0.310282 9.91479 -4.59254e-10 -4.61062e-10 -3.888e-10
0.856 0.00266382 -0.00475509 0.0113455 -0.187138 -0.383705 9.73736 -4.56469e-10 -4.61803e-10 -4.58262e-10
0.857 0.00997688 0.013669 -0.000767904 -0.445095 -0.0674038 9.68712 -4.5368e-10 -4.62613e-10 -5.23914e-10
0.858 -0.00226207 -0.00871283 -0.00910519 -0.16878 -0.169167 9.84061 -4.50888e-10 -4.63503e-10 -5.85569e-10
0.859 0.00151087 0.00475174 -0.00877432 -0.234966 -0.284733 9.95944 -4.48092e-10 -4.64468e-10 -6.43054e-10
0.86 -0.0095279 0.0185854 -0.0069823 -0.35822 -0.159603 9.89734 -4.45293e-10 -4.65494e-10 -6.9622e-10
0.861 -0.00328055 0.0127955 0.0100349 -0.358031 -0.101168 10.0349 -4.42492e-10 -4.66573e-10 -7.44909e-10
0.862 0.0132364 0.0116425 0.0103776 -0.146352 -0.169318 10.1255 -4.39688e-10 -4.67698e-10 -7.88982e-10
0.863 -0.0149953 0.0121104 0.0170166 -0.0853992 -0.137424 10.1259 -4.36881e-10 -4.68865e-10 -8.28295e-10
0.864 -0.0152071 -0.00166419 0.00492392 -0.375191 -0.294716 9.71085 -4.34072e-10 -4.7007e-10 -8.62719e-10
0.865 -0.00474948 0.0161003 0.00357749 -0.426048 -0.282105 9.96091 -4.31262e-10 -4.7131e-10 -8.9212e-10
0.866 0.00037674 0.0157467 -0.00251848 -0.377475 -0.27009 9.78721 -4.28449e-10 -4.72582e-10 -9.16379e-10
0.867 0.00638469 -0.00997192 0.00436894 -0.133334 -0.105686 9.89241 -4.25635e-10 -4.73885e-10 -9.35374e-10
0.868 -0.0178289 0.0109082 -0.00859789 -0.155987 -0.109041 9.94377 -4.22819e-10 -4.75217e-10 -9.4899e-10
0.869 -0.0120209 0.00405269 0.00544124 -0.325217 -0.134614 9.97943 -4.20003e-10 -4.76576e-10 -9.57117e-10
0.87 -0.00998282 -0.000306386 0.0298983 -0.272537 -0.122724 9.85606 -4.17184e-10 -4.77959e-10 -9.59647e-10
0.871 -0.0139433 0.0286138 -0.00392029 -0.338863 -0.172552 9.84511 -4.14365e-10 -4.79366e-10 -9.56478e-10
0.872 0.00483656 0.00752829 0.00591689 -0.336077 -0.210267 9.92058 -4.11545e-10 -4.80794e-10 -9.47511e-10
0.873 0.00595935 -0.0119287 -0.0103275 -0.158651 0.004387 10.0291 -4.08724e-10 -4.82244e-10 -9.3265e-10
0.874 0.000548195 0.00478161 -0.0109862 -0.168882 -0.00417923 10.0381 -4.05902e-10 -4.83729e-10 -9.11801e-10
0.875 -0.00515839 0.014577 0.0206149 -0.377031 -0.285863 10.0479 -4.03079e-10 -4.85297e-10 -8.84878e-10
0.876 0.00207827 0.00634933 -0.0179121 -0.227568 -0.251774 9.83515 -4.00255e-10 -4.87026e-10 -8.52353e-10
0.877 0.00255157 0.00439789 -0.00459191 -0.345481 -0.291249 9.88382 -3.97431e-10 -4.8897e-10 -8.14659e-10
0.878 -0.00220244 0.0165646 0.00558601 -0.16005 -0.300649 9.86574 -3.94605e-10 -4.91106e-10 -7.72205e-10
0.879 0.00374939 0.00431385 0.0125694 -0.0874615 -0.212376 10.0502 -3.91779e-10 -4.93321e-10 -7.25333e-10
0.881 -0.00268388 -0.00434585 0.0129946 -0.0244582 -0.33433 9.98705 -3.86126e-10 -4.97442e-10 -6.1967e-10
0.882 -0.0205739 0.00781728 0.0186394 -0.200981 -0.46673 9.90949 -3.833e-10 -4.99203e-10 -5.61439e-10
0.883 0.00300972 -0.00984795 0.0018504 -0.367298 -0.120185 9.9486 -3.80473e-10 -5.00762e-10 -4.99991e-10
0.884 -0.00831435 0.0121735 -0.00951284 0.105752 -0.0675932 9.84365 -3.77646e-10 -5.02145e-10 -4.35554e-10
0.885 0.000623047 0.0098281 -0.000761697 -0.23042 -0.115902 9.90066 -3.74819e-10 -5.03374e-10 -3.68369e-10
0.886 0.00855931 -0.00108155 -0.00336873 -0.226729 -0.192831 9.85229 -3.71992e-10 -5.04472e-10 -2.98653e-10
0.887 -0.00226497 0.0119029 0.0187507 -0.297908 -0.299277 9.78594 -3.69164e-10 -5.0546e-10 -2.26597e-10
0.888 0.0141853 0.00370259 0.00342638 -0.459819 -0.151093 9.95582 -3.66337e-10 -5.06357e-10 -1.52379e-10
0.889 0.00038563 0.00940695 -0.00360181 -0.479159 -0.0373538 9.78931 -3.6351e-10 -5.07179e-10 -7.61716e-11
0.89 0.00824 0.00684441 0.00584611 -0.31806 -0.269972 9.95398 -3.60683e-10 -5.0794e-10 1.86752e-12
0.891 0.0038409 0.00259791 -0.0108956 -0.435712 -0.0812957 9.79184 -3.57856e-10 -5.08651e-10 8.15972e-11
0.892 -0.00995619 -0.00845007 -0.00479181 -0.297816 -0.137209 9.49128 -3.55029e-10 -5.09324e-10 1.62886e-10
0.893 -0.00388082 -0.00154521 0.0110228 -0.147652 0.0283071 9.90637 -3.52202e-10 -5.09967e-10 2.4561e-10
0.894 0.00102434 0.0178086 -0.0107392 -0.380664 -0.154953 9.78555 -3.49376e-10 -5.10586e-10 3.29654e-10
0.895 0.00631611 -0.00118067 0.00643678 -0.136734 -0.352658 9.80567 -3.46549e-10 -5.11187e-10 4.14914e-10
0.896 -0.00241683 0.0223559 -0.00113848 -0.0965849 -0.316503 10.0377 -3.43723e-10 -5.11776e-10 5.01295e-10
0.897 -0.010004 0.0208356 0.0104331 -0.228058 -0.0331743 10.0518 -3.40897e-10 -5.12353e-10 5.88706e-10
0.898 0.00707074 0.00620742 -0.01683 -0.175055 -0.0895688 9.87786 -3.38071e-10 -5.12916e-10 6.76746e-10
0.899 -0.0223028 0.017233 -0.0012092 -0.243688 -0.00585866 9.80643 -3.35245e-10 -5.13446e-10 7.65028e-10
0.9 -0.01524 0.00330931 -0.00642915 -0.20864 -0.1916 9.84935 -3.32419e-10 -5.13911e-10 8.53185e-10
0.901 -8.00213e-05 0.00171076 -0.0139477 -0.337419 -0.0050508 9.8759 -3.29594e-10 -5.14284e-10 9.40862e-10
0.902 0.00421575 0.00455802 -0.00964736 -0.331744 0.00121015 10.0722 -3.26768e-10 -5.1457e-10 1.02773e-09
0.903 0.0099579 0.00622461 0.011351 -0.122475 -0.00769131 9.68886 -3.23944e-10 -5.14804e-10 1.11347e-09
0.904 0.00552749 0.0138394 -0.0155521 -0.309831 -0.295129 9.99497 -3.21119e-10 -5.1503e-10 1.1978e-09
0.905 0.00297468 0.00574506 0.00251555 -0.145667 -0.0447456 9.81694 -3.18295e-10 -5.15275e-10 1.28043e-09
0.906 0.00799653 0.00934685 -0.0258565 -0.127452 -0.0106252 9.78326 -3.15471e-10 -5.15541e-10 1.36112e-09
0.907 -0.00721453 0.0149973 -0.00590634 -0.0451762 -0.143779 9.76195 -3.12647e-10 -5.15821e-10 1.43958e-09
0.908 -0.0109529 -0.0151055 0.00566203 -0.20881 -0.268372 9.72845 -3.09823e-10 -5.16109e-10 1.51557e-09
0.909 0.00120175 0.0146343 0.00579861 -0.141903 -0.027336 10.0571 -3.07e-10 -5.16402e-10 1.58886e-09
0.91 0.0134042 -0.0052845 -0.0068004 -0.138108 -0.24454 9.94606 -3.04177e-10 -5.16697e-10 1.65922e-09
0.911 -0.0342516 0.00252133 -0.0134821 0.0260631 -0.0275623 9.63686 -3.01354e-10 -5.16995e-10 1.72643e-09
0.912 -0.00759353 0.00852515 -0.0196593 -0.437158 -0.256635 9.93148 -2.98532e-10 -5.17295e-10 1.79028e-09
0.913 0.0229683 0.0131462 0.00884814 -0.227327 -0.183508 9.76562 -2.9571e-10 -5.17597e-10 1.85059e-09
0.914 -0.00628872 0.0178647 -0.0121926 -0.200364 -0.124036 9.81635 -2.92888e-10 -5.17903e-10 1.90716e-09
0.915 -0.0183443 0.0233386 0.00990851 -0.181971 -0.148934 9.80896 -2.90066e-10 -5.18212e-10 1.95981e-09
0.916 -0.00467141 0.0196838 0.00357278 -0.257208 -0.108031 9.93818 -2.87245e-10 -5.18524e-10 2.00837e-09
0.917 -0.0211255 -0.00438162 0.00335235 -0.252613 -0.042498 9.87846 -2.84424e-10 -5.18841e-10 2.05268e-09
0.918 -0.000521817 0.00862378 0.0172795 -0.244086 -0.0208675 9.7744 -2.81603e-10 -5.19161e-10 2.09257e-09
0.919 -0.0128354 0.0011435 -0.00220704 -0.423088 -0.169671 9.9262 -2.78782e-10 -5.19485e-10 2.1279e-09
0.92 0.00143463 -0.0064241 0.00690113 -0.19236 -0.295118 9.77741 -2.75962e-10 -5.19813e-10 2.15851e-09
0.921 -0.00718931 0.0218495 0.0306126 -0.172855 -0.0222572 9.8533 -2.73142e-10 -5.20153e-10 2.18428e-09
0.922 -0.0033969 0.0110878 -0.0121499 -0.408188 -0.0890706 9.97047 -2.70322e-10 -5.20541e-10 2.20505e-09
0.923 0.00508828 0.00876967 -0.0138139 -0.256258 -0.244612 9.6198 -2.67503e-10 -5.21047e-10 2.2207e-09
0.924 -0.0240686 0.00963463 -0.00918515 0.00446518 -0.122814 9.86202 -2.64683e-10 -5.21744e-10 2.23109e-09
0.925 0.000766164 0.00693739 0.00793273 -0.300893 -0.156794 9.86629 -2.61864e-10 -5.22641e-10 2.2361e-09
0.926 0.00339059 0.00404514 0.00100605 -0.0945648 -0.189055 9.99231 -2.59045e-10 -5.23658e-10 2.23561e-09
0.927 -0.0188219 -0.0148798 -0.00856441 -0.121564 -0.172905 10.0898 -2.56225e-10 -5.2465e-10 2.22952e-09
0.928 0.00401318 -0.00944247 0.0148177 -0.406645 -0.0333383 10.0902 -2.53406e-10 -5.25491e-10 2.21774e-09
0.929 -0.00307723 0.0317203 0.00263848 -0.365763 -0.0924818 9.7349 -2.50588e-10 -5.26118e-10 2.20018e-09
0.93 0.000422983 0.0122384 0.0049047 -0.0908554 -0.207531 9.81127 -2.4777e-10 -5.2653e-10 2.17673e-09
0.931 -0.0064912 0.012318 0.0182508 -0.234123 0.00812683 9.71137 -2.44952e-10 -5.2675e-10 2.14731e-09
0.932 -0.00483406 -0.00811171 0.00625852 -0.224443 -0.0714329 9.9968 -2.42135e-10 -5.26801e-10 2.11182e-09
0.933 0.00430223 0.0129168 -0.0122322 -0.291863 -0.247951 10.0749 -2.39318e-10 -5.26709e-10 2.07016e-09
0.934 -0.00529329 0.0157176 0.0121573 -0.28378 -0.25939 9.857 -2.36502e-10 -5.26494e-10 2.02227e-09
0.935 -0.0104579 0.0148154 -0.0262466 -0.34916 -0.237305 9.80793 -2.33686e-10 -5.26176e-10 1.96806e-09
0.936 0.00347678 0.0072743 0.00261976 -0.0965983 0.00422049 9.6694 -2.3087e-10 -5.25774e-10 1.90802e-09
0.937 0.00743338 0.00948523 -0.000473222 -0.255816 -0.18164 9.92384 -2.28055e-10 -5.25301e-10 1.8426e-09
0.938 -0.00225576 0.001174 0.00349249 -0.138108 -0.201384 9.83931 -2.2524e-10 -5.24772e-10 1.77222e-09
0.939 0.020634 -0.0123954 -0.00963916 -0.227921 -0.199942 10.0201 -2.22426e-10 -5.24197e-10 1.69724e-09
0.94 0.017352 0.0139947 -0.00888864 -0.373203 -0.222752 10.003 -2.19611e-10 -5.23586e-10 1.61804e-09
0.941 -0.0038255 0.00349745 -0.000385317 -0.33944 0.114198 10.0123 -2.16798e-10 -5.22947e-10 1.53494e-09
0.942 0.0184528 0.00637732 -0.000775344 -0.408818 -0.246377 9.92483 -2.13984e-10 -5.22285e-10 1.44825e-09
0.943 0.0103697 0.021165 0.00711779 -0.29512 0.060097 9.72008 -2.11171e-10 -5.21606e-10 1.35823e-09
0.944 -0.011828 0.00296109 -0.00513136 -0.274851 -0.267777 9.78972 -2.08358e-10 -5.20913e-10 1.26516e-09
0.945 0.00107647 -0.00161451 -0.0267957 -0.13402 -0.232678 9.92533 -2.05546e-10 -5.20207e-10 1.16927e-09
0.946 -0.00313236 0.00700674 0.00557074 -0.127072 -0.169574 9.88674 -2.02734e-10 -5.19474e-10 1.07078e-09
0.947 -0.00562232 0.00606113 -0.00384409 -0.418509 -0.215879 9.91558 -1.99923e-10 -5.18686e-10 9.69892e-10
0.949 -0.00967496 0.00915378 -0.00196406 -0.269418 -0.0177913 9.83141 -1.94301e-10 -5.16843e-10 7.6162e-10
0.95 0.000715049 0.0137021 -0.00400826 -0.32219 -0.217461 10.0672 -1.91491e-10 -5.15805e-10 6.54566e-10
0.951 0.0190587 0.0115457 0.000782888 -0.131994 0.0499332 9.80163 -1.88681e-10 -5.14743e-10 5.45779e-10
0.952 -0.0168487 0.0030775 -0.00759906 -0.0509664 -0.115342 9.87711 -1.85872e-10 -5.1369e-10 4.35393e-10
0.953 -0.0110252 0.000409368 0.0012487 -0.395151 -0.207788 9.76774 -1.83063e-10 -5.12658e-10 3.23542e-10
0.954 0.00105221 -0.00793086 0.0161697 -0.346149 -0.263966 9.85699 -1.80254e-10 -5.11641e-10 2.10343e-10
0.955 0.000161273 0.00578245 0.00274939 -0.15754 -0.0593659 10.043 -1.77446e-10 -5.10632e-10 9.62104e-11
0.956 -0.00127709 0.0155072 0.00235114 -0.386132 -0.101011 10.0087 -1.74639e-10 -5.09628e-10 -1.84513e-11
0.957 0.00134598 0.0129008 -0.0192523 -0.271704 -0.140542 9.88912 -1.71832e-10 -5.08626e-10 -1.33267e-10
0.958 0.00451053 0.00406176 0.00559089 -0.312184 -0.138078 10.0522 -1.69025e-10 -5.07624e-10 -2.4787e-10
0.959 0.00670721 -0.00720096 0.0153401 -0.263436 0.0016279 9.71752 -1.66218e-10 -5.06624e-10 -3.61921e-10
0.96 -0.00212362 -0.0093673 -0.0064543 -0.220923 -0.16133 10.2288 -1.63412e-10 -5.05625e-10 -4.75088e-10
0.961 -0.00792416 -0.0126091 -0.00750021 -0.33807 -0.309209 9.62535 -1.60607e-10 -5.04627e-10 -5.87062e-10
0.962 -0.0106924 -0.0140428 0.00112693 -0.302472 -0.109506 9.9158 -1.57802e-10 -5.03632e-10 -6.97543e-10
0.963 0.00608976 -0.0151176 0.00140798 -0.17323 -0.155456 9.88052 -1.54997e-10 -5.02639e-10 -8.06248e-10
0.964 0.0106268 -0.00823122 0.0212354 -0.261636 -0.31121 9.80192 -1.52192e-10 -5.01649e-10 -9.12907e-10
0.965 -0.0131926 0.029002 0.0126344 -0.0839848 -0.0837983 10.0005 -1.49388e-10 -5.00661e-10 -1.01726e-09
0.966 -0.0278195 0.00445706 0.0035043 -0.233868 0.1429 9.97577 -1.46585e-10 -4.99677e-10 -1.11906e-09
0.967 -0.00787253 -0.0161322 -0.0141007 -0.1363 -0.0731619 10.2556 -1.43782e-10 -4.98696e-10 -1.21807e-09
0.968 -0.00311575 -0.00211611 -0.0148202 -0.151791 -0.288779 9.82103 -1.40979e-10 -4.97721e-10 -1.31407e-09
0.969 0.00100454 -0.00360304 -0.00287317 -0.197815 -0.244233 9.97116 -1.38176e-10 -4.96776e-10 -1.40683e-09
0.97 0.00933638 -0.0014723 0.0138631 -0.30632 -0.211122 10.1048 -1.35374e-10 -4.95919e-10 -1.49616e-09
0.971 0.00357259 0.00750262 0.00286394 -0.384116 -0.179965 9.82612 -1.32572e-10 -4.9523e-10 -1.58187e-09
0.972 -0.0111283 0.00243512 -0.0171494 -0.17194 -0.0870593 9.84093 -1.2977e-10 -4.94748e-10 -1.66376e-09
0.973 0.000186415 0.00467175 -0.00991424 -0.32529 -0.0946181 9.84195 -1.26969e-10 -4.94424e-10 -1.74167e-09
0.974 -0.00836827 0.00855225 -0.00712258 -0.323226 -0.14545 9.72569 -1.24167e-10 -4.9413e-10 -1.81541e-09
0.975 -0.0160953 -0.00391485 -0.00832289 -0.0790625 -0.326849 10.0778 -1.21366e-10 -4.93724e-10 -1.88479e-09
0.976 -0.0047275 0.0211568 0.000842241 -0.30951 -0.0362169 9.83695 -1.18565e-10 -4.93119e-10 -1.94966e-09
0.977 0.0185712 0.0207455 -0.00293067 -0.150798 -0.137269 9.86166 -1.15765e-10 -4.92294e-10 -2.00984e-09
0.978 -0.00159868 -0.00679756 -0.0210487 -0.135881 -0.0762072 9.65788 -1.12965e-10 -4.91267e-10 -2.06522e-09
0.979 0.00220094 0.0110225 -0.00044103 -0.285988 -0.213627 9.95679 -1.10166e-10 -4.90063e-10 -2.11562e-09
0.98 -0.000702928 -5.95371e-05 0.00862473 -0.28389 -0.1579 9.76838 -1.07367e-10 -4.88705e-10 -2.16094e-09
0.981 0.0144844 -0.0102458 0.00873233 -0.242901 -0.0831886 9.83853 -1.04569e-10 -4.87217e-10 -2.20103e-09
0.982 -0.0013113 -0.0176331 0.00677443 -0.491453 -0.0909631 9.75181 -1.01771e-10 -4.85618e-10 -2.23578e-09
0.983 0.00102928 0.0150927 0.0101701 -0.432285 -0.185057 9.75475 -9.89735e-11 -4.83928e-10 -2.26508e-09
0.984 0.00202531 0.0171538 0.00467698 -0.168936 -0.145401 9.96554 -9.61764e-11 -4.82163e-10 -2.2888e-09
0.985 0.00526423 0.00879281 0.00517856 -0.212507 -0.352784 9.8369 -9.33797e-11 -4.80335e-10 -2.30685e-09
0.986 0.00225461 0.00177727 0.0111521 -0.239173 -0.449159 9.87175 -9.05834e-11 -4.78458e-10 -2.31912e-09
0.987 0.000476555 0.015136 0.0114473 -0.44394 0.0925689 9.86881 -8.77874e-11 -4.7654e-10 -2.32551e-09
0.988 0.00172204 -0.00936775 -0.0163018 -0.304348 -0.119903 9.76374 -8.49919e-11 -4.74591e-10 -2.32595e-09
0.989 -0.00823772 -0.00547652 0.00665152 -0.0956472 -0.208567 9.67004 -8.21967e-11 -4.72617e-10 -2.32032e-09
0.99 0.000379108 0.0184378 0.0085832 -0.281045 -0.243863 9.67877 -7.9402e-11 -4.70623e-10 -2.30856e-09
0.991 0.00431319 0.00401412 0.00977846 -0.262503 -0.196748 9.95857 -7.66075e-11 -4.68614e-10 -2.29114e-09
0.992 0.00298424 0.0139128 -0.00879787 -0.443779 -0.188061 9.84442 -7.38135e-11 -4.66591e-10 -2.26849e-09
0.993 0.001678 0.0224212 0.00672641 -0.287209 -0.125022 10.1179 -7.10199e-11 -4.64548e-10 -2.24102e-09
0.994 -0.0336603 0.00405963 -0.00161096 -0.0477579 -0.139342 10.0192 -6.82266e-11 -4.62461e-10 -2.20911e-09
0.995 -0.0107987 0.0176213 -0.0238328 -0.0744741 0.147832 9.71966 -6.54337e-11 -4.60298e-10 -2.17311e-09
0.996 -0.00510868 0.0116413 -0.0108908 -0.238623 -0.0290212 9.84754 -6.26412e-11 -4.58038e-10 -2.13334e-09
0.997 0.00881063 0.00190009 -0.00402204 -0.161872 -0.246387 9.70394 -5.98492e-11 -4.55696e-10 -2.0901e-09
1.001 -0.0216449 0.00888294 0.012824 -0.402191 -0.0255852 9.7709 -4.86854e-11 -4.46211e-10 -1.88736e-09
1.002 0.000729881 0.00656537 0.00247762 -0.311711 0.0224442 10.0048 -4.58954e-11 -4.43872e-10 -1.83032e-09
1.003 0.000242543 -0.00966745 0.00681549 -0.567511 -0.286759 9.81473 -4.31058e-11 -4.41538e-10 -1.77113e-09
1.004 -0.0127302 -0.012221 0.0114333 -0.363521 0.0884852 10.081 -4.03166e-11 -4.39206e-10 -1.70995e-09
1.005 0.00112015 -0.000770016 -0.0190386 -0.414448 -0.335059 9.67565 -3.75277e-11 -4.36875e-10 -1.64694e-09
1.006 0.0144506 0.00800462 -0.0133066 -0.276338 -0.140658 9.75468 -3.47393e-11 -4.34544e-10 -1.58223e-09
1.007 -0.0188671 0.022045 0.00237436 -0.436723 0.048682 9.9413 -3.19511e-11 -4.32215e-10 -1.51596e-09
1.008 0.00836534 0.0120113 -0.00142539 -0.400442 -0.208412 9.64594 -2.91634e-11 -4.29886e-10 -1.44824e-09
1.009 -0.0107552 -0.00856132 -0.00356515 -0.301193 -0.273607 9.85223 -2.6376e-11 -4.27559e-10 -1.37919e-09
1.01 -0.00362713 0.0205359 0.00349991 -0.241793 0.0728043 9.64031 -2.35889e-11 -4.25234e-10 -1.3089e-09
1.011 0.0124142 0.0108914 0.0060126 -0.0517597 -0.1609 9.823 -2.08022e-11 -4.22912e-10 -1.23747e-09
1.012 -0.00555878 0.0179437 -0.00915373 -0.248641 -0.0782446 9.89815 -1.80159e-11 -4.20593e-10 -1.16498e-09
1.013 0.00215204 0.00857328 -0.00274876 -0.261443 -0.0798316 9.89062 -1.52299e-11 -4.18276e-10 -1.09152e-09
1.014 0.0139174 0.00334334 -0.00147678 -0.057566 0.158106 9.86572 -1.24487e-11 -4.15886e-10 -1.01731e-09
1.015 0.0167897 0.0107406 -0.00891347 -0.191521 -0.223359 9.78593 -9.67643e-12 -4.13351e-10 -9.42595e-10
1.016 -0.00325551 0.00583358 -0.0028393 -0.392184 -0.207928 9.79876 -6.91718e-12 -4.10613e-10 -8.67581e-10
1.017 0.000842222 -0.00513493 -0.000363413 -0.303363 -0.0777696 9.88416 -4.17478e-12 -4.0765e-10 -7.92477e-10
1.018 0.0204135 0.00469129 0.011024 -0.345238 -0.197003 10.1414 -1.45288e-12 -4.04474e-10 -7.17486e-10
1.019 -0.0172097 0.00242181 0.00454729 -0.245504 0.0122447 9.79964 1.24502e-12 -4.01085e-10 -6.42806e-10
1.02 -0.0108844 0.00343664 0.00612876 -0.156603 -0.108432 9.74392 3.91551e-12 -3.97409e-10 -5.68618e-10
1.021 -0.0016913 0.0178981 -0.0120978 -0.302834 -0.210545 9.90455 6.55518e-12 -3.93285e-10 -4.95074e-10
1.022 -0.00608218 0.00790521 0.00863829 -0.311365 -0.0422909 9.81956 9.16071e-12 -3.8851e-10 -4.22348e-10
1.023 0.00839836 0.0190446 0.00784079 -0.182033 -0.186299 9.77225 1.17289e-11 -3.82919e-10 -3.50555e-10
1.024 -0.00294512 0.00293851 0.0146637 -0.154752 -0.268758 9.92174 1.42568e-11 -3.76419e-10 -2.79867e-10
1.025 0.00704033 0.00893953 0.000546742 -0.186454 -0.213021 10.1239 1.67416e-11 -3.68969e-10 -2.10398e-10
1.026 -0.00784956 0.0101343 0.00535189 -0.188841 -0.479026 9.72711 1.91806e-11 -3.60547e-10 -1.42306e-10
1.027 0.00873822 0.0185271 -0.00599079 -0.0946584 -0.0244824 9.78698 2.15711e-11 -3.51131e-10 -7.5712e-11
1.028 -0.0157725 0.0031541 -0.0163506 -0.242153 -0.174351 9.89754 2.39107e-11 -3.40702e-10 -1.07329e-11
1.03 -0.0120334 -0.00945336 -0.00560764 -0.23918 -0.276205 9.99721 2.84278e-11 -3.16721e-10 1.13889e-10
1.031 -0.00164911 0.00431772 -0.0070838 -0.345189 -0.170204 10.0544 3.06007e-11 -3.03126e-10 1.73316e-10
1.032 -0.00282174 0.00485746 -0.00424998 -0.0030453 -0.133961 9.75108 3.27137e-11 -2.88433e-10 2.30681e-10
1.033 0.0144066 0.00278331 -0.0171118 -0.305708 -0.0957291 9.66229 3.47647e-11 -2.72618e-10 2.85888e-10
1.034 -0.00425676 -0.00865186 -0.00339432 -0.080709 -0.21967 9.8398 3.67518e-11 -2.55656e-10 3.38848e-10
1.035 -0.0173857 -0.00348278 -0.0160359 -0.249471 -0.176561 9.92131 3.86731e-11 -2.37523e-10 3.89471e-10
1.036 -0.0133514 0.0248767 -0.00968261 -0.3603 -0.233769 9.82322 4.0538e-11 -2.1839e-10 4.37783e-10
1.037 -0.00154773 0.0135909 0.00898507 -0.159031 -0.0959953 9.94829 4.23554e-11 -1.98416e-10 4.83803e-10
1.038 0.00288045 0.0141476 0.00124821 -0.337613 -0.270758 10.036 4.41336e-11 -1.77749e-10 5.27543e-10
1.041 -0.00180507 -0.00158273 0.00483591 -0.287114 0.155677 9.90358 4.931e-11 -1.12904e-10 6.45114e-10
1.042 0.0147222 0.000778839 0.00292149 -0.29834 -0.146216 9.867 5.10059e-11 -9.06862e-11 6.79735e-10
1.043 0.00123092 0.00973379 -0.00770448 -0.0351504 -0.157829 10.0747 5.26976e-11 -6.83052e-11 7.12044e-10
1.044 0.00188319 0.0177398 -0.000282056 -0.444909 0.0282342 9.89729 5.4391e-11 -4.58627e-11 7.42024e-10
1.045 -0.00664427 -0.00586631 0.0114361 -0.312468 -0.300994 9.77674 5.60916e-11 -2.34877e-11 7.6966e-10
1.046 -0.00608943 -0.00483658 -0.00551224 -0.470192 -0.0656975 9.86571 5.78045e-11 -1.31529e-12 7.94945e-10
1.047 -0.0122909 0.000818983 -0.0010008 -0.00401601 -0.0846782 9.76262 5.95347e-11 2.05404e-11 8.17857e-10
1.048 0.00101354 -0.000141234 -0.00113075 -0.214266 -0.366246 9.91647 6.12869e-11 4.19938e-11 8.38381e-10
1.049 0.0160414 0.0198305 0.00467361 -0.026667 0.0823192 9.72632 6.30655e-11 6.29748e-11 8.56494e-10
1.05 0.00978735 0.00833274 -0.0153085 -0.181834 -0.158809 9.74553 6.48746e-11 8.34171e-11 8.72162e-10
1.051 -0.00901868 0.011449 0.000745541 -0.253037 -0.170758 9.90902 6.67181e-11 1.03256e-10 8.85353e-10
1.052 0.00938652 -0.00583412 0.0143351 -0.101662 -0.217254 9.79387 6.85998e-11 1.22427e-10 8.9604e-10
1.053 -0.00542054 0.0162564 0.00321819 -0.271652 -0.135022 9.78052 7.05232e-11 1.4087e-10 9.04194e-10
1.054 -0.0165133 -0.00132097 -0.00159245 -0.178468 -0.0677922 9.9459 7.24916e-11 1.58527e-10 9.09779e-10
1.055 0.00648346 0.0209734 -0.00400017 -0.0874574 -0.108929 9.81222 7.45015e-11 1.75458e-10 9.12996e-10
1.056 -0.0222963 -0.019354 -0.0035742 -0.0106624 -0.070391 9.90741 7.65497e-11 1.91716e-10 9.14025e-10
1.057 -0.0132516 0.000562474 -0.0243223 -0.132646 -0.137994 10.0343 7.86333e-11 2.07354e-10 9.13036e-10
1.058 -0.00754771 0.0146332 -0.00484326 -0.333872 -0.10805 9.70855 8.07494e-11 2.22417e-10 9.10183e-10
1.059 0.00236568 0.0102669 0.00471499 -0.498486 -0.188872 9.62749 8.28956e-11 2.36949e-10 9.05609e-10
1.06 0.0192904 -0.00734024 0.0088435 -0.135219 -0.0198754 9.94333 8.50696e-11 2.50991e-10 8.99446e-10
1.061 -0.00371582 -0.0114461 0.0067511 0.0437563 -0.18264 9.86482 8.72691e-11 2.64579e-10 8.91816e-10
1.062 0.0046909 0.0217931 -0.0107448 -0.125751 -0.137728 9.81448 8.94921e-11 2.77748e-10 8.82831e-10
1.063 0.00227429 0.0069078 0.00558352 -0.141743 -0.19767 9.94185 9.17369e-11 2.90523e-10 8.72596e-10
1.064 0.00581112 -0.0021106 -0.00978282 -0.169908 -0.197386 9.75804 9.40018e-11 3.02902e-10 8.61205e-10
1.065 -0.0242451 -0.0023224 0.0157786 -0.20939 -0.235686 9.93201 9.62853e-11 3.14843e-10 8.48742e-10
1.066 -0.00827558 0.0149487 -0.00562236 -0.0833514 -0.171336 9.93717 9.85861e-11 3.26297e-10 8.35277e-10
1.067 0.0131697 0.00827909 -0.00711452 -0.23885 -0.32255 9.84313 1.00903e-10 3.37268e-10 8.20879e-10
1.068 -0.0118739 -0.00253272 0.00342399 -0.192037 -0.127981 9.98027 1.03234e-10 3.47852e-10 8.05629e-10
1.069 0.0124106 -0.0045726 -0.00431141 -0.220167 -0.0885146 9.83115 1.05579e-10 3.58207e-10 7.8958e-10
1.07 -0.0138091 -0.00387059 -0.000212232 -0.46154 -0.0480282 9.83005 1.07936e-10 3.68484e-10 7.7283e-10
1.071 0.0213779 0.0155334 -0.016266 -0.323507 -0.139716 9.74202 1.10305e-10 3.7877e-10 7.55412e-10
1.072 0.00508485 -0.0115659 -0.0161894 -0.177451 -0.0367587 9.95612 1.12683e-10 3.89086e-10 7.37404e-10
1.077 0.00315913 -0.0168172 0.00951399 -0.287055 -0.289582 9.96466 1.2462e-10 4.39305e-10 6.42713e-10
1.078 -0.0102804 0.0295456 -0.00390564 0.0241653 -0.151605 9.71536 1.26983e-10 4.48514e-10 6.24087e-10
1.079 -0.016814 -0.0162639 0.0012208 -0.090199 -0.436728 9.68527 1.29328e-10 4.57274e-10 6.05944e-10
1.083 0.0124516 0.00156862 0.0132716 -0.466295 -0.0794894 9.87115 1.3845e-10 4.86592e-10 5.40998e-10
1.084 0.00796276 0.00663179 0.00270167 -0.254304 0.012206 9.85138 1.40649e-10 4.9221e-10 5.27322e-10
1.085 -0.00240255 0.0115394 0.00290499 0.0513393 -0.15047 9.90007 1.42808e-10 4.97042e-10 5.14912e-10
1.086 -0.00339327 0.0176858 -0.00499085 -0.288073 -0.0273993 9.77661 1.44926e-10 5.01041e-10 5.03877e-10
1.087 0.0281393 0.0272548 -0.0137928 -0.139295 -0.187875 9.83763 1.46998e-10 5.04167e-10 4.94322e-10
1.088 -0.00216721 0.0220097 -0.00288563 -0.145651 0.151936 9.68105 1.49022e-10 5.0639e-10 4.86347e-10
1.09 0.0146868 0.0159875 0.00815412 -0.16372 -0.0264571 10.0484 1.52917e-10 5.08093e-10 4.75495e-10
1.091 0.00891055 7.18676e-05 0.0105243 -0.234252 -0.251044 9.95926 1.54783e-10 5.07544e-10 4.72784e-10
1.092 0.00779251 0.000146802 -0.013924 -0.35296 -0.0126359 10.1524 1.5659e-10 5.05997e-10 4.71994e-10
1.093 -0.0112285 -0.00342388 -0.0121574 -0.297645 -0.179252 9.72321 1.58338e-10 5.03375e-10 4.73217e-10
1.094 -0.00681376 -0.00753115 -0.0128724 -0.0611524 -0.0452472 9.621 1.60024e-10 4.99608e-10 4.76528e-10
1.095 0.00591973 0.00473352 0.0134129 -0.189412 -0.266739 9.87176 1.61645e-10 4.94654e-10 4.8201e-10
1.096 0.0034951 0.00554681 0.0023362 -0.206139 0.0518664 9.73924 1.63201e-10 4.88486e-10 4.89738e-10
1.097 -0.00456967 0.00767743 -0.00540501 -0.0488179 -0.1861 9.81186 1.64688e-10 4.81085e-10 4.99768e-10
1.098 0.0185588 0.00527733 -0.0128623 -0.307409 -0.325391 9.75127 1.66106e-10 4.72426e-10 5.12167e-10
1.099 -0.00213776 0.0051548 0.0170538 -0.318212 -0.266877 10.0292 1.67453e-10 4.62485e-10 5.26991e-10
1.1 0.021216 0.023738 0.0156305 -0.285576 -0.33397 9.86658 1.68726e-10 4.51239e-10 5.44301e-10
1.101 -0.00731281 -0.000936176 -0.00811914 -0.222466 -0.257356 9.53014 1.69932e-10 4.38787e-10 5.63902e-10
1.102 -0.0103124 0.00613193 0.00697741 -0.338994 0.0370053 9.68366 1.71076e-10 4.25222e-10 5.8562e-10
1.103 -0.00553222 0.00377171 -0.00588972 -0.425818 -0.248454 9.92301 1.72162e-10 4.1063e-10 6.0929e-10
1.104 0.00130758 0.008634 -0.012062 -0.405411 0.125517 9.94583 1.73196e-10 3.9509e-10 6.34764e-10
1.105 0.00345052 -0.0064716 0.00207556 -0.351755 -0.243805 9.77812 1.7418e-10 3.78673e-10 6.61904e-10
1.106 0.0165753 0.0267951 0.0330898 -0.0369374 0.0510875 10.1136 1.7512e-10 3.61448e-10 6.90582e-10
1.107 -0.016855 -0.00037308 -0.0196827 -0.263943 -0.00771962 9.95451 1.76017e-10 3.43477e-10 7.20683e-10
1.108 0.0135686 -0.00249858 -0.00668784 -0.233374 -0.131316 9.95317 1.76876e-10 3.24817e-10 7.52097e-10
1.109 -0.0157362 0.00176839 0.0113178 -0.00689897 -0.295801 9.95329 1.777e-10 3.05522e-10 7.84725e-10
1.11 -0.00378285 0.00986961 -0.00601227 -0.117519 0.068524 9.87756 1.78491e-10 2.85638e-10 8.18477e-10
1.111 -0.01019 0.00686611 -0.00525626 -0.00412411 -0.233882 9.91178 1.79251e-10 2.65192e-10 8.53267e-10
1.112 -0.0112014 0.0133647 -0.000140843 -0.124306 -0.100079 9.69445 1.79984e-10 2.44169e-10 8.89014e-10
1.113 -0.00199235 0.0111463 -0.00210586 -0.263205 -0.0792675 9.8156 1.80691e-10 2.22529e-10 9.25639e-10
1.114 -0.00495522 0.0225479 -0.00261304 -0.374956 -0.145516 9.88029 1.81374e-10 2.00262e-10 9.63061e-10
1.115 -0.00660302 -0.0107076 0.0110757 0.0186185 -0.224034 9.85949 1.82036e-10 1.77438e-10 1.00122e-09
1.116 0.0146391 0.00392169 0.0086495 -0.395325 -0.21803 9.88083 1.82677e-10 1.54212e-10 1.04008e-09
1.117 0.00094729 0.00335347 -0.00133427 -0.287029 -0.0982029 9.68264 1.833e-10 1.30756e-10 1.07957e-09
1.118 -0.00802032 -0.000496748 0.000974884 -0.400033 0.0888866 9.88642 1.83905e-10 1.07189e-10 1.11968e-09
1.119 5.03899e-05 0.00344276 0.0162776 -0.126211 -0.232504 9.75712 1.8449e-10 8.36377e-11 1.16017e-09
1.12 0.0013478 0.00474773 0.00279377 -0.248734 -0.121783 9.87928 1.85051e-10 6.01806e-11 1.20087e-09
1.121 -0.017799 0.00153887 0.00858051 -0.252293 -0.12961 9.91465 1.85586e-10 3.68836e-11 1.24155e-09
1.122 -0.00485428 0.00364764 -0.0114509 -0.200749 -0.236847 9.75944 1.86092e-10 1.38078e-11 1.28205e-09
1.123 -0.0238257 0.0118162 0.00765619 -0.29328 -0.0848191 9.6564 1.86566e-10 -8.98799e-12 1.32217e-09
1.124 0.00762644 -0.0173279 0.0140497 -0.111714 -0.195219 9.69654 1.87005e-10 -3.1447e-11 1.36176e-09
1.125 0.00740132 0.011838 0.00857851 -0.197208 -0.214667 9.90501 1.87407e-10 -5.35139e-11 1.40064e-09
1.126 0.00137021 0.00539405 -0.00386689 -0.217255 -0.116385 10.0684 1.87769e-10 -7.51346e-11 1.43867e-09
1.127 -0.00234702 0.0204883 -0.00840416 -0.521182 -0.129111 9.89934 1.88089e-10 -9.62559e-11 1.47569e-09
1.128 -0.0265659 0.00444059 -0.0167151 -0.270794 -0.222933 10.1462 1.88364e-10 -1.16826e-10 1.51158e-09
1.129 0.000367263 0.00452457 -0.00226565 -0.166881 -0.00109085 9.85554 1.88591e-10 -1.36793e-10 1.54618e-09
1.13 -0.000933514 0.00243059 -0.00879812 -0.294263 -0.140962 9.90293 1.8877e-10 -1.56109e-10 1.57938e-09
1.131 -0.0146263 -0.0214293 0.014793 -0.448568 -0.17971 9.91111 1.88897e-10 -1.74723e-10 1.61105e-09
1.132 -0.0152084 0.0144617 0.00284243 0.0523995 -0.0310239 9.85889 1.8897e-10 -1.92588e-10 1.64107e-09
1.133 0.0190546 0.000159581 -0.00455174 -0.196253 0.0280418 9.76634 1.88988e-10 -2.09658e-10 1.66935e-09
1.134 -0.0065132 0.0113528 0.0187415 -0.21923 -0.0553593 9.99104 1.88948e-10 -2.25886e-10 1.69577e-09
1.135 0.0212191 -0.00204764 0.00327614 -0.137897 0.00235102 9.86652 1.88848e-10 -2.41219e-10 1.72022e-09
1.137 0.00796185 -0.00299503 -0.00635692 -0.18853 -0.219937 10.0324 1.88462e-10 -2.68927e-10 1.76287e-09
1.138 0.00246326 0.000839735 -0.0104594 -0.331821 -0.023159 9.81408 1.88176e-10 -2.81239e-10 1.78071e-09
1.139 0.00929176 -0.00488587 -0.0230213 -0.28653 -0.217407 9.882 1.87833e-10 -2.92572e-10 1.79593e-09
1.14 -0.0232862 0.00111459 0.0060354 -0.106953 -0.232808 9.86074 1.87433e-10 -3.02996e-10 1.8083e-09
1.141 -0.00625859 0.0072797 -0.00971074 -0.288488 -0.0988943 10.0221 1.8698e-10 -3.12587e-10 1.81762e-09
1.142 0.0129533 -0.00728619 -0.0228998 -0.193391 -0.331115 9.99314 1.86475e-10 -3.21396e-10 1.8237e-09
1.144 0.00189445 0.00114792 0.0114568 0.0900279 -0.268446 9.91829 1.85321e-10 -3.36778e-10 1.82539e-09
1.145 0.00227119 0.0119553 0.0165335 -0.0922232 -0.117898 9.60819 1.84675e-10 -3.43395e-10 1.82063e-09
1.146 -0.0106723 0.00152608 -0.00291906 -0.193508 -0.197887 9.8887 1.83985e-10 -3.49325e-10 1.81189e-09
1.147 0.00112778 0.00703391 0.018024 -0.434 -0.202128 9.74063 1.83254e-10 -3.54594e-10 1.79903e-09
1.148 -0.00321181 -0.00687112 0.00299617 -0.179927 -0.109144 9.95108 1.82483e-10 -3.59225e-10 1.78187e-09
1.149 -0.0140782 0.00434744 -0.00545875 -0.238765 -0.167359 10.0573 1.81674e-10 -3.63243e-10 1.76026e-09
1.15 0.0194013 0.00250365 0.0044612 -0.192505 -0.0710827 9.99563 1.80829e-10 -3.6667e-10 1.73407e-09
1.151 0.00231801 0.00166529 0.00276927 -0.43985 -0.241405 9.89167 1.79948e-10 -3.69529e-10 1.70314e-09
1.152 0.00251555 0.0137512 -0.0038662 -0.228977 -0.157636 9.94108 1.79033e-10 -3.71843e-10 1.66735e-09
1.153 0.0144444 0.0310847 -0.0076713 -0.302181 -0.00355496 9.97547 1.78086e-10 -3.73632e-10 1.62656e-09
1.154 -0.00669866 0.00707828 -0.00199885 -0.352749 -0.0162621 9.8527 1.77108e-10 -3.74917e-10 1.58065e-09
1.155 0.000264929 0.0315402 -0.00282506 -0.0772802 -0.253451 10.0644 1.761e-10 -3.75717e-10 1.52949e-09
1.156 0.000341239 0.00813632 0.00532476 -0.430455 -0.0997614 9.82753 1.75064e-10 -3.7605e-10 1.47298e-09
1.157 -0.0121943 0.0246163 -0.00855545 -0.113608 -0.185563 9.83516 1.74e-10 -3.75936e-10 1.41099e-09
1.158 -0.0241267 -0.0095743 0.0216286 -0.156143 0.00199573 10.0232 1.7291e-10 -3.75402e-10 1.34343e-09
1.159 -0.000764725 0.0120862 0.0080342 -0.0907138 -0.196379 9.96483 1.71796e-10 -3.74524e-10 1.27103e-09
1.16 -0.0039634 0.00884274 0.00314067 -0.219302 -0.27685 9.90653 1.70659e-10 -3.73409e-10 1.19448e-09
1.161 -0.00113936 0.0204918 0.00943924 0.0018944 -0.236824 9.93241 1.69502e-10 -3.72152e-10 1.11444e-09
1.162 -0.00096786 -0.0028827 -0.00298219 -0.261047 -0.245507 10.0293 1.68326e-10 -3.70775e-10 1.03152e-09
1.166 -0.0112001 0.00637703 0.00344904 -0.0435723 -0.0872488 9.84144 1.6346e-10 -3.62281e-10 6.82331e-10
1.167 -0.0135719 0.0262954 -0.00461383 -0.208749 -0.350165 9.64547 1.62208e-10 -3.5912e-10 5.93207e-10
1.168 0.0014561 0.0198441 -0.00481018 -0.433162 0.038974 10.0471 1.60944e-10 -3.55578e-10 5.04248e-10
1.169 -0.00157292 -0.00607515 -0.0120166 -0.347556 -0.092497 9.76721 1.5967e-10 -3.51695e-10 4.15871e-10
1.17 -0.000608622 0.017212 0.0158142 -0.257465 -0.219354 9.982 1.58385e-10 -3.47509e-10 3.28466e-10
1.171 0.00925284 0.00533254 -0.00743202 -0.16073 -0.230532 9.79423 1.5709e-10 -3.43054e-10 2.4239e-10
1.172 -0.000910398 0.00314581 -0.0137477 -0.203093 0.0271771 10.0187 1.55787e-10 -3.3836e-10 1.57983e-10
1.173 -0.00772197 0.00900793 -0.00586118 -0.320515 -0.153773 9.85394 1.54476e-10 -3.33457e-10 7.5576e-11
1.174 -0.00770706 0.0091424 0.0165972 -0.503042 0.0292151 9.83838 1.53158e-10 -3.28369e-10 -4.52964e-12
1.175 -0.00560174 0.00337409 -0.0157476 -0.260109 -0.276842 9.77801 1.51833e-10 -3.23117e-10 -8.20416e-11
1.176 0.00128265 0.00196487 -0.00620963 -0.086992 -0.0917219 9.85258 1.50501e-10 -3.17721e-10 -1.56684e-10
1.177 -0.00917323 0.0174958 -0.00587562 -0.353668 -0.157379 9.70456 1.49164e-10 -3.12198e-10 -2.282e-10
1.178 -0.0114761 -0.00731915 -0.0146945 -0.131227 -0.129258 9.85986 1.47821e-10 -3.06563e-10 -2.96347e-10
1.179 -0.000974413 -0.00460698 0.00484166 -0.177281 -0.221635 9.64824 1.46473e-10 -3.00828e-10 -3.6089e-10
1.18 -0.0182357 0.00974579 -0.016191 -0.209079 -0.251375 9.43239 1.45121e-10 -2.95003e-10 -4.21614e-10
1.181 -0.000348691 -0.00340919 0.0214646 -0.329822 -0.22542 9.85689 1.43765e-10 -2.89099e-10 -4.78312e-10
1.182 -0.00583423 0.00547654 -0.00544002 -0.235025 -0.122719 9.9273 1.42404e-10 -2.83118e-10 -5.3079e-10
1.183 -0.0175642 0.00536308 -0.00505358 -0.453497 -0.082764 9.82539 1.4104e-10 -2.77051e-10 -5.78865e-10
1.184 0.0206461 0.0209512 0.010039 -0.0454772 -0.148091 9.81616 1.39673e-10 -2.7087e-10 -6.2237e-10
1.185 0.0109072 0.0146375 -0.0232539 -0.161889 -0.170267 9.71156 1.38303e-10 -2.6455e-10 -6.61147e-10
1.186 -0.0100894 0.0112883 0.00792654 -0.462297 -0.00914968 9.77891 1.3693e-10 -2.58093e-10 -6.95045e-10
1.187 -0.0106309 0.011174 0.00908103 -0.0377747 -0.312397 9.82522 1.35554e-10 -2.51533e-10 -7.23915e-10
1.188 0.00366024 0.0190055 -0.00129118 -0.41485 -0.259771 9.74185 1.34175e-10 -2.44917e-10 -7.47604e-10
1.189 0.0017677 -0.00576467 -0.000169655 -0.344359 -0.0681342 9.78991 1.32795e-10 -2.3828e-10 -7.65983e-10
1.19 0.0152462 0.025374 0.00629978 -0.261197 -0.0850949 10.0038 1.31412e-10 -2.31631e-10 -7.78914e-10
1.191 9.4549e-05 0.0085185 0.0144067 -0.155081 -0.274144 9.84275 1.30028e-10 -2.24966e-10 -7.86278e-10
1.192 0.00960931 0.0146835 -0.00843912 -0.294173 -0.194429 9.81703 1.28641e-10 -2.18282e-10 -7.87971e-10
1.193 -0.0133935 -0.00318041 -0.00937124 -0.32606 -0.162241 10.0654 1.27254e-10 -2.11576e-10 -7.83881e-10
1.194 0.0116446 0.010596 0.025057 -0.130146 -0.311593 9.88666 1.25864e-10 -2.04849e-10 -7.7391e-10
1.195 0.0158612 -0.000185073 0.00123284 -0.24783 -0.0886275 10.1531 1.24474e-10 -1.98102e-10 -7.57962e-10
1.197 -0.00595133 0.0103096 0.0111824 -0.239522 -0.0642524 9.82058 1.21689e-10 -1.84555e-10 -7.07761e-10
1.198 -0.00425151 0.00672726 0.0060769 -0.0481278 -0.139626 9.75031 1.20295e-10 -1.7776e-10 -6.73334e-10
1.199 -0.0130918 -0.00889362 -0.0105371 0.0262856 -0.120776 9.81906 1.189e-10 -1.70952e-10 -6.32576e-10
1.2 -0.0316511 0.0199317 -0.00370881 0.0530181 -0.302064 9.92286 1.17505e-10 -1.64133e-10 -5.85409e-10
1.201 0.00677921 -0.00325767 0.00413764 -0.0916041 -0.0158835 10.0243 1.16108e-10 -1.57305e-10 -5.31757e-10
1.202 -0.00664718 0.00437277 -0.0246457 -0.458089 -0.322659 9.73696 1.14711e-10 -1.5047e-10 -4.71545e-10
1.203 -0.0124661 0.0166617 -0.00668656 -0.111114 -0.115272 9.72926 1.13313e-10 -1.43628e-10 -4.04705e-10
1.204 0.000446485 0.00840258 0.0089498 -0.252851 -0.083944 9.85937 1.11919e-10 -1.36857e-10 -3.31893e-10
1.205 -0.00174505 -0.00858028 0.0096206 -0.0738653 -0.395477 9.84062 1.10534e-10 -1.30239e-10 -2.53724e-10
1.206 -0.0143483 -0.004508 0.0145084 -0.508601 -0.0259205 9.84575 1.09161e-10 -1.23872e-10 -1.70771e-10
1.207 -0.00718102 -0.00520328 0.00116636 -0.310072 -0.213362 9.81537 1.07804e-10 -1.17891e-10 -8.35721e-11
1.208 -0.016274 0.0067802 0.0029336 -0.156703 -0.032242 10.0705 1.06468e-10 -1.1244e-10 7.36812e-12
1.209 -0.00623802 0.0156249 0.00890892 -0.165587 -0.0268389 10.0398 1.05155e-10 -1.07608e-10 1.01571e-10
1.21 0.0170733 -0.00301042 0.00294206 -0.320985 -0.254117 9.80381 1.03871e-10 -1.03391e-10 1.98616e-10
1.211 0.00290805 -0.00539893 0.00634488 -0.121994 -0.337179 9.79518 1.02617e-10 -9.97121e-11 2.98087e-10
1.212 -0.0371463 0.00851441 0.0126987 -0.267351 -0.350525 10.0926 1.01398e-10 -9.64896e-11 3.99628e-10
1.213 0.0117821 0.011149 -0.0030626 -0.149869 -0.0722002 10.0416 1.00215e-10 -9.37016e-11 5.02904e-10
1.214 -0.00879186 0.00857682 -0.00650658 -0.134003 -0.228579 9.73189 9.90724e-11 -9.13889e-11 6.07559e-10
1.215 0.00259385 -0.0109407 0.00152623 -0.233102 -0.0400825 9.71644 9.79727e-11 -8.96205e-11 7.13302e-10
1.216 0.0128655 -0.00425674 -0.00707335 -0.279767 -0.276746 9.5968 9.69185e-11 -8.84686e-11 8.19828e-10
1.217 -0.00621522 0.0167396 -0.0122558 -0.438399 -0.249252 9.63254 9.59127e-11 -8.80024e-11 9.26856e-10
1.218 -0.0186292 0.0150085 0.00327449 -0.122354 -0.062231 9.91608 9.49576e-11 -8.82879e-11 1.03413e-09
1.219 -0.000458723 0.0060868 0.00987552 -0.073201 -0.0744326 9.90948 9.40558e-11 -8.93872e-11 1.14143e-09
1.22 0.0117405 0.00186156 -0.0205843 -0.475999 -0.218488 9.84297 9.32095e-11 -9.13584e-11 1.2485e-09
1.221 0.0142538 -0.00417085 -0.0230703 -0.095633 0.0315376 9.74914 9.24211e-11 -9.42558e-11 1.35514e-09
1.222 0.00117507 -0.00488297 -0.00192583 -0.265317 -0.222475 9.72669 9.16926e-11 -9.81302e-11 1.46116e-09
1.223 -0.00956295 0.0110692 0.00675564 -0.363666 0.0811676 9.77277 9.10217e-11 -1.02953e-10 1.56619e-09
1.224 -0.0170218 0.0157409 -0.00389722 -0.26018 -0.379726 9.84652 9.04062e-11 -1.08694e-10 1.6699e-09
1.225 0.00387082 -0.00378491 -0.0129432 -0.332337 -0.176439 9.81807 8.98439e-11 -1.15324e-10 1.77198e-09
1.226 -0.00377864 0.00297622 0.0110532 -0.407041 -0.157889 9.90762 8.93327e-11 -1.22815e-10 1.87212e-09
1.227 -0.0175916 0.00370458 0.00290151 -0.202602 -0.0807913 9.97641 8.88705e-11 -1.31137e-10 1.97003e-09
1.228 -0.003467 0.00759574 -0.0145064 -0.264725 -0.197399 9.88593 8.84555e-11 -1.40261e-10 2.06545e-09
