t wx wy wz ax ay az yaw pitch roll

0.0 -8.13737e-05 2.24638e-05 -4.36963e-05 -9.5442e-11 2.11256e-09 9.8066 -8.06176e-10 1.64526e-09 -5.76182e-10
0.001 -8.30018e-05 2.08626e-05 -4.40843e-05 -1.5068e-10 2.02422e-09 9.8066 -8.0852e-10 1.66165e-09 -4.67625e-10
0.002 -8.35364e-05 2.30258e-05 -4.26428e-05 -3.35515e-10 1.94576e-09 9.8066 -8.10829e-10 1.67752e-09 -3.57194e-10
0.003 -8.38166e-05 2.5511e-05 -4.14332e-05 -7.58199e-10 1.88258e-09 9.8066 -8.13101e-10 1.69286e-09 -2.45243e-10
0.004 -8.40367e-05 2.49289e-05 -4.07411e-05 -1.41749e-09 1.83437e-09 9.8066 -8.15333e-10 1.70759e-09 -1.32095e-10
0.005 -8.72635e-05 2.40658e-05 -4.15998e-05 -2.12596e-09 1.79201e-09 9.8066 -8.17521e-10 1.72165e-09 -1.80427e-11
0.006 -8.88371e-05 2.3309e-05 -4.22734e-05 -2.59262e-09 1.74227e-09 9.8066 -8.19664e-10 1.73494e-09 9.66343e-11
0.007 -8.8711e-05 2.26525e-05 -4.20191e-05 -2.63275e-09 1.67609e-09 9.8066 -8.21758e-10 1.74738e-09 2.11689e-10
0.008 -8.87349e-05 2.31459e-05 -4.03106e-05 -2.31802e-09 1.59463e-09 9.8066 -8.23801e-10 1.75893e-09 3.26885e-10
0.009 -8.84381e-05 2.37137e-05 -4.31608e-05 -1.88373e-09 1.50738e-09 9.8066 -8.25791e-10 1.76955e-09 4.41985e-10
0.01 -8.71289e-05 2.46143e-05 -4.25239e-05 -1.49282e-09 1.42261e-09 9.8066 -8.27725e-10 1.77921e-09 5.56783e-10
0.011 -8.57991e-05 2.30023e-05 -4.13902e-05 -1.17365e-09 1.34246e-09 9.8066 -8.29601e-10 1.78786e-09 6.7107e-10
0.013 -8.89861e-05 2.46077e-05 -4.37484e-05 -7.01947e-10 1.19452e-09 9.8066 -8.33171e-10 1.80204e-09 8.97392e-10
0.014 -8.97385e-05 2.43143e-05 -4.42832e-05 -5.28055e-10 1.12552e-09 9.8066 -8.34861e-10 1.80748e-09 1.00909e-09
0.015 -8.86219e-05 2.34046e-05 -4.40239e-05 -3.84692e-10 1.05927e-09 9.8066 -8.36485e-10 1.81179e-09 1.1196e-09
0.016 -8.88358e-05 2.33188e-05 -4.43374e-05 -2.65624e-10 9.95518e-10 9.8066 -8.38041e-10 1.81493e-09 1.22878e-09
0.017 -8.8321e-05 2.53624e-05 -4.32645e-05 -1.66168e-10 9.33713e-10 9.8066 -8.39528e-10 1.81686e-09 1.33651e-09
0.018 -9.01335e-05 2.5394e-05 -4.3102e-05 -8.23402e-11 8.73722e-10 9.8066 -8.40943e-10 1.81756e-09 1.44264e-09
0.019 -9.07724e-05 2.63565e-05 -4.32742e-05 -3.44983e-11 7.63508e-10 9.8066 -8.42291e-10 1.81708e-09 1.54691e-09
0.02 -8.97903e-05 2.43738e-05 -4.17783e-05 3.35207e-12 6.5452e-10 9.8066 -8.43572e-10 1.81546e-09 1.64903e-09
0.021 -8.82276e-05 2.3658e-05 -4.30273e-05 3.30041e-11 5.46497e-10 9.8066 -8.44791e-10 1.81274e-09 1.74875e-09
0.022 -8.77518e-05 2.35971e-05 -4.30488e-05 5.6709e-11 4.39194e-10 9.8066 -8.45949e-10 1.80898e-09 1.84582e-09
0.023 -8.68502e-05 2.39434e-05 -4.35622e-05 8.8412e-11 3.32288e-10 9.8066 -8.47048e-10 1.8042e-09 1.94e-09
0.024 -8.92287e-05 2.33351e-05 -4.40054e-05 2.44721e-10 2.23571e-10 9.8066 -8.48092e-10 1.7984e-09 2.03107e-09
0.025 -9.03154e-05 2.55352e-05 -4.50759e-05 8.30783e-10 1.13853e-10 9.8066 -8.49082e-10 1.79157e-09 2.11881e-09
0.026 -9.15889e-05 2.45816e-05 -4.60957e-05 2.0886e-09 1.37577e-11 9.8066 -8.5002e-10 1.78366e-09 2.203e-09
0.027 -9.19437e-05 2.37913e-05 -4.71412e-05 3.8228e-09 -6.47032e-11 9.8066 -8.50908e-10 1.77469e-09 2.28343e-09
0.028 -9.62766e-05 2.20623e-05 -4.82805e-05 5.4251e-09 -1.22277e-10 9.8066 -8.51748e-10 1.76478e-09 2.35993e-09
0.029 -9.81837e-05 1.97029e-05 -4.70023e-05 6.29007e-09 -1.75931e-10 9.8066 -8.52542e-10 1.75409e-09 2.43231e-09
0.03 -9.95008e-05 2.17056e-05 -4.64239e-05 6.21728e-09 -2.47397e-10 9.8066 -8.53292e-10 1.7428e-09 2.50043e-09
0.031 -0.000100212 2.16162e-05 -4.50399e-05 5.47638e-09 -3.48322e-10 9.8066 -8.54e-10 1.73099e-09 2.5641e-09
0.032 -0.00010436 2.36917e-05 -4.50323e-05 4.5224e-09 -4.72333e-10 9.8066 -8.54668e-10 1.7187e-09 2.62319e-09
0.033 -0.000103733 2.28561e-05 -4.50422e-05 3.65671e-09 -6.03269e-10 9.8066 -8.55296e-10 1.70593e-09 2.67753e-09
0.035 -0.000106283 2.16009e-05 -4.79443e-05 2.38632e-09 -8.52487e-10 9.8066 -8.56443e-10 1.67896e-09 2.7714e-09
0.036 -0.000104431 2.16452e-05 -4.65441e-05 1.93279e-09 -9.70154e-10 9.8066 -8.56963e-10 1.66477e-09 2.81065e-09
0.037 -0.000106534 2.13716e-05 -4.65507e-05 1.56912e-09 -1.08433e-09 9.8066 -8.57451e-10 1.65011e-09 2.8446e-09
0.038 -0.000107692 2.11008e-05 -4.64659e-05 1.27727e-09 -1.19573e-09 9.8066 -8.57906e-10 1.63498e-09 2.87314e-09
0.039 -0.0001105 2.19992e-05 -4.59436e-05 1.04315e-09 -1.30496e-09 9.8066 -8.58331e-10 1.6194e-09 2.89615e-09
0.04 -0.000110192 2.04956e-05 -4.47837e-05 8.55084e-10 -1.41231e-09 9.8066 -8.58727e-10 1.60337e-09 2.91351e-09
0.041 -0.000109424 2.03066e-05 -4.53384e-05 7.04205e-10 -1.51816e-09 9.8066 -8.59094e-10 1.58689e-09 2.92513e-09
0.042 -0.000109593 1.88863e-05 -4.32561e-05 5.82814e-10 -1.62277e-09 9.8066 -8.59434e-10 1.56998e-09 2.93091e-09
0.043 -0.000106008 1.91589e-05 -4.38687e-05 4.85297e-10 -1.72643e-09 9.8066 -8.59748e-10 1.55264e-09 2.93074e-09
0.044 -0.000106984 1.87644e-05 -4.37921e-05 4.06773e-10 -1.82924e-09 9.8066 -8.60036e-10 1.5349e-09 2.92455e-09
0.045 -0.00010677 1.8137e-05 -4.46417e-05 3.4349e-10 -1.93144e-09 9.8066 -8.60301e-10 1.51675e-09 2.91224e-09
0.046 -0.000107232 1.77217e-05 -4.29934e-05 2.92358e-10 -2.033e-09 9.8066 -8.60543e-10 1.49821e-09 2.89373e-09
0.047 -0.00010584 1.8825e-05 -4.16113e-05 2.48619e-10 -2.13418e-09 9.8066 -8.60762e-10 1.4793e-09 2.86896e-09
0.048 -0.000105052 1.93665e-05 -4.05159e-05 1.90312e-10 -2.23437e-09 9.8066 -8.6096e-10 1.46005e-09 2.83784e-09
0.049 -0.000106902 1.85763e-05 -3.78914e-05 4.36396e-11 -2.33006e-09 9.8066 -8.61137e-10 1.44049e-09 2.80029e-09
0.05 -0.000106557 1.70552e-05 -3.66938e-05 -3.069e-10 -2.41506e-09 9.8066 -8.61295e-10 1.42066e-09 2.75626e-09
0.051 -0.000108019 1.65058e-05 -3.5922e-05 -9.14905e-10 -2.48701e-09 9.8066 -8.61434e-10 1.40061e-09 2.70566e-09
0.052 -0.000108589 1.64002e-05 -3.61843e-05 -1.6611e-09 -2.55153e-09 9.8066 -8.61554e-10 1.3803e-09 2.64844e-09
0.053 -0.000109429 1.60547e-05 -3.6942e-05 -2.27192e-09 -2.62111e-09 9.8066 -8.61657e-10 1.35972e-09 2.58455e-09
0.054 -0.000108895 1.92036e-05 -3.65013e-05 -2.49806e-09 -2.70743e-09 9.8066 -8.61744e-10 1.33883e-09 2.51393e-09
0.055 -0.000111117 1.7871e-05 -3.67541e-05 -2.31333e-09 -2.81312e-09 9.8066 -8.61814e-10 1.31763e-09 2.43655e-09
0.056 -0.000110306 1.79851e-05 -3.95937e-05 -1.91944e-09 -2.93074e-09 9.8066 -8.61869e-10 1.29615e-09 2.35236e-09
0.057 -0.000108652 1.92758e-05 -3.85756e-05 -1.52769e-09 -3.05047e-09 9.8066 -8.6191e-10 1.2744e-09 2.26128e-09
0.058 -0.000108758 2.02548e-05 -3.84834e-05 -1.23376e-09 -2.93687e-09 9.8066 -8.61931e-10 1.25249e-09 2.16404e-09
0.06 -0.000108838 2.16501e-05 -3.80241e-05 -8.26194e-10 -2.71912e-09 9.8066 -8.61908e-10 1.20851e-09 1.95356e-09
0.063 -0.000111018 2.23911e-05 -3.57475e-05 -5.08027e-10 -2.4159e-09 9.8066 -8.61661e-10 1.14349e-09 1.60633e-09
0.064 -0.000110195 2.24841e-05 -3.50394e-05 -4.51466e-10 -2.32085e-09 9.8066 -8.61511e-10 1.12237e-09 1.48418e-09
0.065 -0.000108976 2.3591e-05 -3.43239e-05 -4.1186e-10 -2.22863e-09 9.8066 -8.61322e-10 1.10165e-09 1.35955e-09
0.066 -0.000110804 2.19455e-05 -3.5874e-05 -3.85637e-10 -2.13906e-09 9.8066 -8.61092e-10 1.08139e-09 1.23285e-09
0.067 -0.000110637 2.13232e-05 -3.55876e-05 -3.70003e-10 -2.05204e-09 9.8066 -8.60818e-10 1.06166e-09 1.10445e-09
0.068 -0.00011171 2.27428e-05 -3.46022e-05 -3.63022e-10 -1.96731e-09 9.8066 -8.60498e-10 1.04251e-09 9.74689e-10
0.069 -0.000111951 2.18821e-05 -3.49332e-05 -3.6269e-10 -1.88482e-09 9.8066 -8.60129e-10 1.02401e-09 8.43895e-10
0.07 -0.000111047 2.24255e-05 -3.60515e-05 -3.63786e-10 -1.80444e-09 9.8066 -8.5971e-10 1.0062e-09 7.12372e-10
0.071 -0.000112468 2.15421e-05 -3.3513e-05 -3.04562e-10 -1.72749e-09 9.8066 -8.59238e-10 9.89114e-10 5.80403e-10
0.072 -0.000113085 2.33952e-05 -3.24722e-05 5.81592e-11 -1.65495e-09 9.8066 -8.58711e-10 9.7275e-10 4.48253e-10
0.073 -0.000114366 2.1626e-05 -3.37565e-05 1.03994e-09 -1.57963e-09 9.8066 -8.58127e-10 9.57073e-10 3.16161e-10
0.074 -0.000115306 2.09477e-05 -3.5598e-05 2.63022e-09 -1.48819e-09 9.8066 -8.57483e-10 9.42086e-10 1.8436e-10
0.075 -0.000114711 1.85895e-05 -3.64489e-05 4.33756e-09 -1.37524e-09 9.8066 -8.56778e-10 9.27876e-10 5.30565e-11
0.076 -0.000111403 1.60312e-05 -3.45954e-05 5.49842e-09 -1.25226e-09 9.8066 -8.5601e-10 9.14611e-10 -7.75135e-11
0.077 -0.000110206 1.74637e-05 -3.37439e-05 5.73493e-09 -1.14102e-09 9.8066 -8.55177e-10 9.02474e-10 -2.07169e-10
0.08 -0.000109564 1.72067e-05 -3.52043e-05 3.27361e-09 -9.64004e-10 9.8066 -8.52274e-10 8.7379e-10 -5.88699e-10
0.081 -0.000111338 1.68507e-05 -3.44126e-05 2.48628e-09 -9.23965e-10 9.8066 -8.51167e-10 8.66896e-10 -7.12853e-10
0.082 -0.000111064 1.80945e-05 -3.59997e-05 1.84906e-09 -8.79717e-10 9.8066 -8.49986e-10 8.61348e-10 -8.35253e-10
0.083 -0.000108519 1.88938e-05 -3.55476e-05 1.35674e-09 -7.84711e-10 9.8066 -8.48736e-10 8.5708e-10 -9.55616e-10
0.084 -0.000109601 1.88192e-05 -3.70395e-05 9.61711e-10 -6.86903e-10 9.8066 -8.47419e-10 8.54026e-10 -1.07366e-09
0.085 -0.00011091 1.7345e-05 -3.81117e-05 6.44822e-10 -5.86865e-10 9.8066 -8.46038e-10 8.52125e-10 -1.18913e-09
0.086 -0.000110236 1.7749e-05 -3.69668e-05 3.90357e-10 -4.85404e-10 9.8066 -8.44595e-10 8.5132e-10 -1.30177e-09
0.087 -0.000110896 1.50688e-05 -3.8685e-05 1.86079e-10 -3.82828e-10 9.8066 -8.43093e-10 8.51558e-10 -1.41134e-09
0.088 -0.000110674 1.52406e-05 -4.00481e-05 2.19329e-11 -2.79455e-10 9.8066 -8.41534e-10 8.52791e-10 -1.51763e-09
0.089 -0.000110584 1.41432e-05 -4.0107e-05 -1.10078e-10 -1.75761e-10 9.8066 -8.39921e-10 8.5497e-10 -1.62041e-09
0.09 -0.000108826 1.42577e-05 -4.19447e-05 -2.16283e-10 -7.17237e-11 9.8066 -8.38255e-10 8.58055e-10 -1.71948e-09
0.091 -0.00010794 1.53347e-05 -4.34734e-05 -3.01787e-10 3.23972e-11 9.8066 -8.36539e-10 8.62003e-10 -1.81464e-09
0.092 -0.000106767 1.65712e-05 -4.2527e-05 -3.70743e-10 1.36315e-10 9.8066 -8.34775e-10 8.66779e-10 -1.90572e-09
0.093 -0.000107785 1.67918e-05 -4.30956e-05 -4.26462e-10 2.4e-10 9.8066 -8.32965e-10 8.72345e-10 -1.99253e-09
0.094 -0.000108327 1.78959e-05 -4.50365e-05 -4.72409e-10 3.43543e-10 9.8066 -8.31111e-10 8.78672e-10 -2.07491e-09
0.095 -0.000107295 1.88414e-05 -4.29891e-05 -5.20664e-10 4.46901e-10 9.8066 -8.29213e-10 8.85736e-10 -2.15269e-09
0.096 -0.000106634 1.93047e-05 -4.3663e-05 -6.2294e-10 5.52419e-10 9.8066 -8.27275e-10 8.93533e-10 -2.22574e-09
0.097 -0.000106384 1.99723e-05 -4.4604e-05 -8.86814e-10 6.65745e-10 9.8066 -8.25298e-10 9.0207e-10 -2.29391e-09
0.098 -0.000106596 2.13878e-05 -4.24696e-05 -1.40422e-09 7.91687e-10 9.8066 -8.23283e-10 9.11342e-10 -2.35708e-09
0.099 -0.000106212 2.33122e-05 -4.24345e-05 -2.1262e-09 9.27771e-10 9.8066 -8.21233e-10 9.21312e-10 -2.41511e-09
0.1 -0.000105572 2.21538e-05 -4.27544e-05 -2.82214e-09 1.06349e-09 9.8066 -8.19147e-10 9.31917e-10 -2.46787e-09
0.101 -0.000105933 2.17737e-05 -4.15076e-05 -3.20718e-09 1.18577e-09 9.8066 -8.17028e-10 9.43093e-10 -2.51525e-09
0.102 -0.00010737 2.04299e-05 -4.09205e-05 -3.11628e-09 1.19563e-09 9.8066 -8.14886e-10 9.54659e-10 -2.55742e-09
0.103 -0.000107968 2.31435e-05 -3.96038e-05 -2.72855e-09 1.19294e-09 9.8066 -8.12727e-10 9.66471e-10 -2.59455e-09
0.104 -0.000108418 2.03695e-05 -3.99752e-05 -2.28066e-09 1.18765e-09 9.8066 -8.10562e-10 9.78395e-10 -2.6268e-09
0.105 -0.000107334 1.88493e-05 -3.84053e-05 -1.89474e-09 1.1866e-09 9.8066 -8.08396e-10 9.9031e-10 -2.6543e-09
0.106 -0.000107845 1.98041e-05 -3.75001e-05 -1.57907e-09 1.19076e-09 9.8066 -8.06237e-10 1.0021e-09 -2.67719e-09
0.107 -0.000106851 2.21717e-05 -3.90236e-05 -1.32043e-09 1.19951e-09 9.8066 -8.04092e-10 1.01365e-09 -2.69558e-09
0.108 -0.00010791 2.28387e-05 -4.10467e-05 -1.10753e-09 1.21248e-09 9.8066 -8.01966e-10 1.02485e-09 -2.70958e-09
0.109 -0.000107778 2.14484e-05 -4.05304e-05 -9.3135e-10 1.22898e-09 9.8066 -7.99866e-10 1.03562e-09 -2.71929e-09
0.11 -0.000108876 2.14157e-05 -4.18507e-05 -7.84637e-10 1.24869e-09 9.8066 -7.97795e-10 1.04586e-09 -2.72478e-09
0.111 -0.000110419 2.16596e-05 -4.14948e-05 -6.61588e-10 1.27109e-09 9.8066 -7.9576e-10 1.05548e-09 -2.72613e-09
0.112 -0.000111454 2.04922e-05 -4.33215e-05 -5.57591e-10 1.29605e-09 9.8066 -7.93765e-10 1.0644e-09 -2.72341e-09
0.114 -0.000109279 2.24671e-05 -4.4362e-05 -3.92524e-10 1.35222e-09 9.8066 -7.89911e-10 1.07987e-09 -2.70598e-09
0.115 -0.000109968 2.14312e-05 -4.40441e-05 -3.25992e-10 1.38313e-09 9.8066 -7.8806e-10 1.08627e-09 -2.69138e-09
0.116 -0.000107766 2.1085e-05 -4.68683e-05 -2.67454e-10 1.41545e-09 9.8066 -7.86264e-10 1.09171e-09 -2.6729e-09
0.117 -0.000109021 2.04586e-05 -4.62072e-05 -2.14459e-10 1.4493e-09 9.8066 -7.84527e-10 1.09612e-09 -2.65059e-09
0.118 -0.000108986 2.18244e-05 -4.46731e-05 -1.39065e-10 1.48346e-09 9.8066 -7.82852e-10 1.09945e-09 -2.62447e-09
0.119 -0.000108538 2.27691e-05 -4.38643e-05 1.26733e-10 1.51615e-09 9.8066 -7.81241e-10 1.1016e-09 -2.59457e-09
0.12 -0.00010817 2.27944e-05 -4.53568e-05 9.11323e-10 1.55033e-09 9.8066 -7.79698e-10 1.10244e-09 -2.56093e-09
0.122 -0.000108659 2.42839e-05 -4.44062e-05 4.16244e-09 1.6699e-09 9.8066 -7.76822e-10 1.09986e-09 -2.48252e-09
0.123 -0.000107349 2.33063e-05 -4.53089e-05 5.64345e-09 1.7597e-09 9.8066 -7.75494e-10 1.09647e-09 -2.43778e-09
0.124 -0.000109818 2.45934e-05 -4.55239e-05 6.28349e-09 1.84775e-09 9.8066 -7.74242e-10 1.09181e-09 -2.38936e-09
0.125 -0.000107957 2.41286e-05 -4.58854e-05 6.01862e-09 1.91354e-09 9.8066 -7.73069e-10 1.08597e-09 -2.33727e-09
0.126 -0.000107985 2.55083e-05 -4.46227e-05 5.16331e-09 1.86624e-09 9.8066 -7.71969e-10 1.07909e-09 -2.28175e-09
0.127 -0.000108875 2.48514e-05 -4.47796e-05 4.20095e-09 1.80257e-09 9.8066 -7.70935e-10 1.07127e-09 -2.2231e-09
0.128 -0.000111651 2.39339e-05 -4.20249e-05 3.36568e-09 1.73853e-09 9.8066 -7.69963e-10 1.06257e-09 -2.16154e-09
0.129 -0.000111701 2.30002e-05 -4.21423e-05 2.68977e-09 1.68156e-09 9.8066 -7.69048e-10 1.05305e-09 -2.09729e-09
0.13 -0.000111962 2.30795e-05 -4.4569e-05 2.14639e-09 1.63172e-09 9.8066 -7.68186e-10 1.04276e-09 -2.03059e-09
0.131 -0.000110642 2.23741e-05 -4.21838e-05 1.70945e-09 1.58784e-09 9.8066 -7.67372e-10 1.03175e-09 -1.9616e-09
0.132 -0.000109938 2.18851e-05 -4.15698e-05 1.35781e-09 1.54905e-09 9.8066 -7.66603e-10 1.02006e-09 -1.8905e-09
0.133 -0.000108547 2.26202e-05 -4.09879e-05 1.07468e-09 1.51457e-09 9.8066 -7.65876e-10 1.00774e-09 -1.81747e-09
0.134 -0.000108414 2.24032e-05 -3.94601e-05 8.46512e-10 1.48364e-09 9.8066 -7.65186e-10 9.94822e-10 -1.74265e-09
0.135 -0.000107981 2.16243e-05 -3.78114e-05 6.62581e-10 1.45575e-09 9.8066 -7.64532e-10 9.81351e-10 -1.66618e-09
0.136 -0.000106755 2.11817e-05 -3.8151e-05 5.14016e-10 1.43064e-09 9.8066 -7.63911e-10 9.67361e-10 -1.58819e-09
0.137 -0.000107062 2.1317e-05 -3.93921e-05 3.93925e-10 1.40788e-09 9.8066 -7.63319e-10 9.52885e-10 -1.5088e-09
0.138 -0.000106523 2.1977e-05 -3.86356e-05 2.96661e-10 1.38711e-09 9.8066 -7.62755e-10 9.37956e-10 -1.42813e-09
0.139 -0.000107535 2.13219e-05 -3.82856e-05 2.17876e-10 1.36816e-09 9.8066 -7.62217e-10 9.22604e-10 -1.34627e-09
0.14 -0.000108295 2.29481e-05 -3.72187e-05 1.5372e-10 1.35089e-09 9.8066 -7.61703e-10 9.06857e-10 -1.26332e-09
0.141 -0.000109813 2.29275e-05 -3.76781e-05 1.01343e-10 1.33506e-09 9.8066 -7.6121e-10 8.90744e-10 -1.17937e-09
0.142 -0.000109691 2.3335e-05 -3.89593e-05 5.38757e-11 1.3206e-09 9.8066 -7.60737e-10 8.74295e-10 -1.09449e-09
0.143 -0.000110511 2.48062e-05 -3.9517e-05 -4.50383e-11 1.25688e-09 9.8066 -7.60288e-10 8.5763e-10 -1.00893e-09
0.144 -0.000110102 2.54927e-05 -3.98082e-05 -2.61728e-10 1.1999e-09 9.8066 -7.59864e-10 8.40877e-10 -9.22918e-10
0.145 -0.000110071 2.53001e-05 -3.88456e-05 -7.08158e-10 1.15571e-09 9.8066 -7.59468e-10 8.24158e-10 -8.36687e-10
0.146 -0.000108074 2.57237e-05 -3.76568e-05 -1.39921e-09 1.12494e-09 9.8066 -7.59104e-10 8.07562e-10 -7.50441e-10
0.147 -0.00010907 2.4715e-05 -3.35031e-05 -2.16527e-09 1.09938e-09 9.8066 -7.58774e-10 7.91141e-10 -6.64369e-10
0.148 -0.000109336 2.41186e-05 -3.38635e-05 -2.71685e-09 1.0658e-09 9.8066 -7.5848e-10 7.74931e-10 -5.78655e-10
0.149 -0.000109089 2.32238e-05 -3.38489e-05 -2.84969e-09 1.01463e-09 9.8066 -7.58226e-10 7.58979e-10 -4.9346e-10
0.15 -0.000107898 2.32384e-05 -3.33678e-05 -2.60966e-09 9.46182e-10 9.8066 -7.58012e-10 7.43354e-10 -4.08941e-10
0.151 -0.00010813 2.2859e-05 -3.2499e-05 -2.22644e-09 8.69411e-10 9.8066 -7.57842e-10 7.28131e-10 -3.25265e-10
0.152 -0.000107994 2.28808e-05 -3.40888e-05 -1.87766e-09 7.932e-10 9.8066 -7.57718e-10 7.13382e-10 -2.42578e-10
0.153 -0.000109343 2.30658e-05 -3.52602e-05 -1.60099e-09 7.20443e-10 9.8066 -7.57643e-10 6.99177e-10 -1.61028e-10
0.154 -0.000110562 2.23563e-05 -3.41204e-05 -1.38506e-09 6.50872e-10 9.8066 -7.57617e-10 6.85576e-10 -8.07478e-11
0.155 -0.00011316 2.18265e-05 -3.46796e-05 -1.21775e-09 5.84018e-10 9.8066 -7.57645e-10 6.72638e-10 -1.86926e-12
0.156 -0.000112563 2.06215e-05 -3.53853e-05 -1.08924e-09 5.1938e-10 9.8066 -7.57727e-10 6.6042e-10 7.54864e-11
0.157 -0.00011344 1.99303e-05 -3.33466e-05 -9.91834e-10 4.56613e-10 9.8066 -7.57865e-10 6.48972e-10 1.51204e-10
0.158 -0.000114975 1.92583e-05 -3.05087e-05 -9.19325e-10 3.95454e-10 9.8066 -7.58062e-10 6.38345e-10 2.25171e-10
0.159 -0.000115735 1.92545e-05 -3.06791e-05 -8.66642e-10 3.3559e-10 9.8066 -7.58319e-10 6.28587e-10 2.97283e-10
0.16 -0.000117595 1.88585e-05 -3.0734e-05 -8.29823e-10 2.76826e-10 9.8066 -7.58638e-10 6.19742e-10 3.67437e-10
0.161 -0.000117546 1.8166e-05 -2.94853e-05 -7.82015e-10 1.71915e-10 9.8066 -7.59017e-10 6.11778e-10 4.35388e-10
0.162 -0.000116665 1.86771e-05 -3.06458e-05 -7.44275e-10 6.76427e-11 9.8066 -7.59454e-10 6.04663e-10 5.00896e-10
0.163 -0.000117306 1.73883e-05 -2.99777e-05 -7.14616e-10 -3.61863e-11 9.8066 -7.59944e-10 5.98366e-10 5.63735e-10
0.164 -0.000116577 1.64591e-05 -2.98012e-05 -6.9107e-10 -1.39754e-10 9.8066 -7.60487e-10 5.92856e-10 6.23684e-10
0.165 -0.000117564 1.6118e-05 -3.1149e-05 -6.62839e-10 -2.433e-10 9.8066 -7.61081e-10 5.881e-10 6.80534e-10
0.166 -0.000118589 1.75098e-05 -3.31383e-05 -5.30157e-10 -3.48882e-10 9.8066 -7.61722e-10 5.84039e-10 7.34082e-10
0.167 -0.00011748 1.87086e-05 -3.29486e-05 -1.90382e-12 -4.56193e-10 9.8066 -7.62409e-10 5.80579e-10 7.84129e-10
0.168 -0.000117383 1.59977e-05 -3.17342e-05 1.18966e-09 -5.5563e-10 9.8066 -7.6314e-10 5.77618e-10 8.30481e-10
0.17 -0.000118853 1.55984e-05 -3.39301e-05 4.54597e-09 -6.92283e-10 9.8066 -7.64727e-10 5.73095e-10 9.11351e-10
0.171 -0.000120087 1.52814e-05 -3.38738e-05 5.50119e-09 -7.43808e-10 9.8066 -7.65579e-10 5.71693e-10 9.45558e-10
0.172 -0.000120887 1.71711e-05 -3.18448e-05 5.51543e-09 -8.11853e-10 9.8066 -7.66468e-10 5.71014e-10 9.75391e-10
0.173 -0.000121919 1.71537e-05 -3.42007e-05 4.82037e-09 -9.08994e-10 9.8066 -7.67393e-10 5.71108e-10 1.00073e-09
0.174 -0.000122267 1.72513e-05 -3.54002e-05 3.87016e-09 -1.03093e-09 9.8066 -7.68353e-10 5.71961e-10 1.02141e-09
0.175 -0.000122047 1.51276e-05 -3.5009e-05 2.99013e-09 -1.16123e-09 9.8066 -7.69346e-10 5.73531e-10 1.0373e-09
0.176 -0.000121367 1.40845e-05 -3.45472e-05 2.27027e-09 -1.28884e-09 9.8066 -7.7037e-10 5.75776e-10 1.04825e-09
0.177 -0.000120418 1.27877e-05 -3.39121e-05 1.69277e-09 -1.41121e-09 9.8066 -7.71424e-10 5.78651e-10 1.05415e-09
0.178 -0.000119952 1.26884e-05 -3.39751e-05 1.22964e-09 -1.52939e-09 9.8066 -7.72507e-10 5.82116e-10 1.05484e-09
0.179 -0.000121159 1.28355e-05 -3.36231e-05 8.58321e-10 -1.64417e-09 9.8066 -7.73619e-10 5.86134e-10 1.05024e-09
0.18 -0.000120689 1.27768e-05 -3.22636e-05 5.60494e-10 -1.75627e-09 9.8066 -7.74756e-10 5.9067e-10 1.0402e-09
0.181 -0.000121543 1.31668e-05 -3.20638e-05 3.21545e-10 -1.86621e-09 9.8066 -7.7592e-10 5.95692e-10 1.02463e-09
0.182 -0.000121726 1.03556e-05 -3.24049e-05 1.34933e-10 -1.81058e-09 9.8066 -7.77107e-10 6.01155e-10 1.00395e-09
0.183 -0.000122515 1.14113e-05 -3.16558e-05 -1.43609e-11 -1.75818e-09 9.8066 -7.78316e-10 6.07018e-10 9.78555e-10
0.184 -0.000121772 1.22392e-05 -3.14124e-05 -1.33742e-10 -1.70882e-09 9.8066 -7.79545e-10 6.13246e-10 9.48808e-10
0.185 -0.00012416 1.22972e-05 -3.24347e-05 -2.28992e-10 -1.66257e-09 9.8066 -7.80792e-10 6.19804e-10 9.15046e-10
0.186 -0.000124345 1.1927e-05 -3.18608e-05 -3.05253e-10 -1.61928e-09 9.8066 -7.82056e-10 6.26663e-10 8.77576e-10
0.187 -0.000124538 1.39978e-05 -3.22113e-05 -3.66174e-10 -1.57882e-09 9.8066 -7.83337e-10 6.33798e-10 8.36689e-10
0.188 -0.000121948 1.36746e-05 -3.2248e-05 -4.14807e-10 -1.54116e-09 9.8066 -7.84631e-10 6.41183e-10 7.92649e-10
0.189 -0.000123063 1.4625e-05 -3.27271e-05 -4.55551e-10 -1.5061e-09 9.8066 -7.85939e-10 6.48802e-10 7.45699e-10
0.19 -0.000122724 1.46188e-05 -3.20055e-05 -5.07134e-10 -1.4731e-09 9.8066 -7.8726e-10 6.56646e-10 6.96067e-10
0.191 -0.00012212 1.75926e-05 -3.14759e-05 -6.37336e-10 -1.43863e-09 9.8066 -7.88592e-10 6.64729e-10 6.43955e-10
0.192 -0.000122282 1.7563e-05 -3.12025e-05 -9.60622e-10 -1.39655e-09 9.8066 -7.89934e-10 6.73067e-10 5.89551e-10
0.199 -0.00012399 2.31245e-05 -3.06024e-05 -2.24797e-09 -1.18126e-09 9.8066 -7.99565e-10 7.36436e-10 1.57891e-10
0.2 -0.000122975 2.25474e-05 -3.23316e-05 -1.91846e-09 -1.18344e-09 9.8066 -8.00967e-10 7.45903e-10 9.05557e-11
0.201 -0.000122285 2.3007e-05 -3.41584e-05 -1.65491e-09 -1.18408e-09 9.8066 -8.02374e-10 7.55453e-10 2.2113e-11
0.202 -0.000121154 2.31364e-05 -3.31055e-05 -1.4443e-09 -1.18336e-09 9.8066 -8.03785e-10 7.65079e-10 -4.73501e-11
0.203 -0.00012272 2.24796e-05 -3.51427e-05 -1.27598e-09 -1.18182e-09 9.8066 -8.05201e-10 7.74776e-10 -1.17761e-10
0.204 -0.00012364 2.21306e-05 -3.39402e-05 -1.14157e-09 -1.17954e-09 9.8066 -8.06621e-10 7.84538e-10 -1.89045e-10
0.205 -0.000122932 2.21375e-05 -3.52721e-05 -1.03431e-09 -1.17689e-09 9.8066 -8.08044e-10 7.94359e-10 -2.61141e-10
0.206 -0.000123777 2.32433e-05 -3.49924e-05 -9.48799e-10 -1.07553e-09 9.8066 -8.09471e-10 8.04234e-10 -3.33668e-10
0.207 -0.000125497 2.34739e-05 -3.33605e-05 -8.80592e-10 -9.73754e-10 9.8066 -8.10901e-10 8.14157e-10 -4.06266e-10
0.208 -0.000124594 2.37317e-05 -3.39677e-05 -8.26247e-10 -8.71632e-10 9.8066 -8.12333e-10 8.24124e-10 -4.78589e-10
0.209 -0.000124196 2.38125e-05 -3.38898e-05 -7.83088e-10 -7.69391e-10 9.8066 -8.13768e-10 8.34131e-10 -5.50309e-10
0.21 -0.000122799 2.40006e-05 -3.35426e-05 -7.48711e-10 -6.66857e-10 9.8066 -8.15206e-10 8.44175e-10 -6.2111e-10
0.211 -0.000122718 2.4492e-05 -3.52617e-05 -7.21464e-10 -5.64224e-10 9.8066 -8.16646e-10 8.54251e-10 -6.90691e-10
0.212 -0.000125263 2.54596e-05 -3.57429e-05 -6.97097e-10 -4.61554e-10 9.8066 -8.18087e-10 8.64354e-10 -7.58763e-10
0.213 -0.000124874 2.52277e-05 -3.56014e-05 -6.25027e-10 -3.60058e-10 9.8066 -8.19531e-10 8.74463e-10 -8.25051e-10
0.214 -0.000124443 2.4577e-05 -3.4204e-05 -2.8197e-10 -2.61229e-10 9.8066 -8.20976e-10 8.84522e-10 -8.89292e-10
0.215 -0.000124659 2.46826e-05 -3.36116e-05 6.56748e-10 -1.59121e-10 9.8066 -8.22423e-10 8.94448e-10 -9.51243e-10
0.216 -0.00012435 2.54627e-05 -3.46947e-05 2.22796e-09 -4.04548e-11 9.8066 -8.2387e-10 9.04191e-10 -1.01067e-09
0.217 -0.000125557 2.56841e-05 -3.11302e-05 3.97973e-09 1.0132e-10 9.8066 -8.25319e-10 9.13784e-10 -1.06734e-09
0.218 -0.00012542 2.7034e-05 -3.26904e-05 5.24411e-09 2.56373e-10 9.8066 -8.26768e-10 9.23344e-10 -1.12102e-09
0.219 -0.000124335 2.78956e-05 -3.42015e-05 5.5996e-09 4.03043e-10 9.8066 -8.28219e-10 9.33016e-10 -1.1715e-09
0.22 -0.000123321 2.73398e-05 -3.40212e-05 5.11547e-09 5.23244e-10 9.8066 -8.29671e-10 9.42896e-10 -1.21855e-09
0.221 -0.000122557 2.69929e-05 -3.51988e-05 4.2088e-09 6.15261e-10 9.8066 -8.31124e-10 9.5301e-10 -1.26197e-09
0.222 -0.000123117 2.60409e-05 -3.71112e-05 3.28219e-09 6.92392e-10 9.8066 -8.32577e-10 9.63343e-10 -1.30159e-09
0.223 -0.000121229 2.61573e-05 -3.61756e-05 2.50362e-09 7.69498e-10 9.8066 -8.34032e-10 9.73869e-10 -1.33721e-09
0.225 -0.000120656 2.74411e-05 -3.8816e-05 1.4114e-09 8.597e-10 9.8066 -8.3695e-10 9.95287e-10 -1.39608e-09
0.226 -0.000122039 2.64968e-05 -3.8685e-05 1.04365e-09 8.73224e-10 9.8066 -8.38426e-10 1.00591e-09 -1.41948e-09
0.227 -0.000121869 2.70194e-05 -4.06722e-05 7.54892e-10 8.91163e-10 9.8066 -8.39921e-10 1.01632e-09 -1.43897e-09
0.228 -0.000124357 2.72994e-05 -4.10674e-05 5.29183e-10 9.12684e-10 9.8066 -8.4144e-10 1.02639e-09 -1.45461e-09
0.229 -0.000123257 2.85615e-05 -4.04155e-05 3.54007e-10 9.37284e-10 9.8066 -8.4299e-10 1.03603e-09 -1.46644e-09
0.23 -0.000123985 2.79456e-05 -4.09015e-05 2.19184e-10 9.64421e-10 9.8066 -8.44573e-10 1.04514e-09 -1.47453e-09
0.231 -0.000123581 2.89603e-05 -4.18241e-05 1.1674e-10 9.93864e-10 9.8066 -8.46195e-10 1.05364e-09 -1.47891e-09
0.232 -0.000124662 2.84432e-05 -4.13102e-05 4.00464e-11 1.02501e-09 9.8066 -8.4786e-10 1.06145e-09 -1.47962e-09
0.233 -0.00012563 3.07505e-05 -3.92803e-05 -1.60703e-11 1.05777e-09 9.8066 -8.49572e-10 1.06848e-09 -1.4767e-09
0.234 -0.000125442 3.07846e-05 -3.81672e-05 -5.56163e-11 1.09193e-09 9.8066 -8.51333e-10 1.07466e-09 -1.47017e-09
0.235 -0.000125225 3.14839e-05 -3.95769e-05 -8.20544e-11 1.12722e-09 9.8066 -8.53149e-10 1.07995e-09 -1.46007e-09
0.236 -0.000124802 3.09719e-05 -3.90965e-05 -9.86083e-11 1.16354e-09 9.8066 -8.55021e-10 1.08427e-09 -1.44642e-09
0.237 -0.000124094 3.18722e-05 -3.98706e-05 -1.15589e-10 1.20096e-09 9.8066 -8.56953e-10 1.08757e-09 -1.42923e-09
0.238 -0.000125098 3.1886e-05 -3.93219e-05 -1.78982e-10 1.24128e-09 9.8066 -8.58948e-10 1.08984e-09 -1.40852e-09
0.239 -0.000126661 3.39226e-05 -3.94528e-05 -3.92427e-10 1.28984e-09 9.8066 -8.61008e-10 1.09104e-09 -1.38432e-09
0.24 -0.000127418 3.23716e-05 -3.97073e-05 -8.55124e-10 1.35186e-09 9.8066 -8.63136e-10 1.09118e-09 -1.35665e-09
0.241 -0.000127688 3.32207e-05 -3.77333e-05 -1.53606e-09 1.42577e-09 9.8066 -8.65334e-10 1.09018e-09 -1.3255e-09
0.242 -0.00012721 3.28051e-05 -3.78496e-05 -2.21963e-09 1.50135e-09 9.8066 -8.67604e-10 1.08798e-09 -1.29089e-09
0.243 -0.000126238 3.31633e-05 -3.80996e-05 -2.61687e-09 1.56558e-09 9.8066 -8.69949e-10 1.0845e-09 -1.25282e-09
0.244 -0.000123603 3.38074e-05 -3.87775e-05 -2.58087e-09 1.61094e-09 9.8066 -8.7237e-10 1.07967e-09 -1.21127e-09
0.245 -0.000124085 3.2578e-05 -3.79684e-05 -2.24273e-09 1.51115e-09 9.8066 -8.74858e-10 1.07353e-09 -1.16666e-09
0.246 -0.000124195 3.29359e-05 -4.01117e-05 -1.82158e-09 1.40826e-09 9.8066 -8.77401e-10 1.06609e-09 -1.1194e-09
0.247 -0.000123841 3.17839e-05 -4.03954e-05 -1.45504e-09 1.30955e-09 9.8066 -8.79992e-10 1.05739e-09 -1.06985e-09
0.248 -0.000123832 3.2367e-05 -4.24193e-05 -1.15789e-09 1.21638e-09 9.8066 -8.82621e-10 1.04743e-09 -1.01835e-09
0.249 -0.000125068 3.30361e-05 -4.07859e-05 -9.17018e-10 1.12819e-09 9.8066 -8.85281e-10 1.03623e-09 -9.65236e-10
0.25 -0.00012598 3.31168e-05 -4.1948e-05 -7.2128e-10 1.0444e-09 9.8066 -8.87964e-10 1.02379e-09 -9.10804e-10
0.251 -0.000123248 3.43626e-05 -3.99092e-05 -5.61511e-10 9.64407e-10 9.8066 -8.90663e-10 1.01011e-09 -8.55338e-10
0.252 -0.000125062 3.16139e-05 -3.9635e-05 -4.30353e-10 8.87706e-10 9.8066 -8.93371e-10 9.95207e-10 -7.99107e-10
0.253 -0.000124597 3.1329e-05 -3.92949e-05 -3.21975e-10 8.13892e-10 9.8066 -8.96083e-10 9.79064e-10 -7.42357e-10
0.254 -0.000125259 3.00575e-05 -3.88413e-05 -2.31901e-10 7.42749e-10 9.8066 -8.98791e-10 9.61681e-10 -6.85324e-10
0.255 -0.000125277 2.84246e-05 -3.81969e-05 -1.56206e-10 6.73662e-10 9.8066 -9.01491e-10 9.43052e-10 -6.28226e-10
0.256 -0.000127147 2.76301e-05 -3.8076e-05 -9.1967e-11 6.06526e-10 9.8066 -9.04177e-10 9.23173e-10 -5.71272e-10
0.257 -0.000128307 2.90485e-05 -3.9075e-05 -3.67527e-11 5.41262e-10 9.8066 -9.06844e-10 9.02033e-10 -5.14654e-10
0.258 -0.000127413 2.90117e-05 -3.75461e-05 1.11605e-11 4.77383e-10 9.8066 -9.09488e-10 8.79626e-10 -4.58556e-10
0.259 -0.000128559 2.91012e-05 -3.74777e-05 5.40833e-11 4.14845e-10 9.8066 -9.12103e-10 8.55941e-10 -4.03151e-10
0.26 -0.00012824 2.87464e-05 -3.50126e-05 1.13752e-10 3.528e-10 9.8066 -9.14687e-10 8.30956e-10 -3.486e-10
0.261 -0.000128008 2.72796e-05 -3.62516e-05 3.3839e-10 2.89272e-10 9.8066 -9.17235e-10 8.04621e-10 -2.95058e-10
0.262 -0.000126689 2.63535e-05 -3.69861e-05 1.05063e-09 2.26351e-10 9.8066 -9.19742e-10 7.7685e-10 -2.42677e-10
0.263 -0.0001276 2.55032e-05 -3.71292e-05 2.41518e-09 1.24102e-10 9.8066 -9.22211e-10 7.4764e-10 -1.91768e-10
0.264 -0.000127894 2.60613e-05 -3.63195e-05 4.17422e-09 4.46898e-11 9.8066 -9.24641e-10 7.1705e-10 -1.42635e-10
0.265 -0.000128523 2.5742e-05 -3.55878e-05 5.68559e-09 -1.55942e-11 9.8066 -9.27034e-10 6.85231e-10 -9.5547e-11
0.269 -0.000127899 2.72789e-05 -3.5892e-05 4.4127e-09 -3.96628e-10 9.8066 -9.36253e-10 5.49041e-10 6.74665e-11
0.27 -0.000127621 2.64571e-05 -3.5572e-05 3.57336e-09 -5.31469e-10 9.8066 -9.38474e-10 5.1317e-10 1.00718e-10
0.271 -0.000127673 2.46866e-05 -3.54105e-05 2.89413e-09 -6.61783e-10 9.8066 -9.40664e-10 4.7662e-10 1.30519e-10
0.272 -0.000128106 2.27817e-05 -3.50629e-05 2.34952e-09 -7.86994e-10 9.8066 -9.42823e-10 4.39407e-10 1.56682e-10
0.273 -0.000128617 2.36732e-05 -3.45659e-05 1.91296e-09 -9.07996e-10 9.8066 -9.44952e-10 4.01546e-10 1.79002e-10
0.274 -0.000130119 2.25356e-05 -3.32403e-05 1.56301e-09 -1.02555e-09 9.8066 -9.47053e-10 3.6305e-10 1.97305e-10
0.275 -0.000130414 2.21491e-05 -3.31363e-05 1.28251e-09 -1.14042e-09 9.8066 -9.49125e-10 3.23936e-10 2.11405e-10
0.276 -0.000129417 2.38403e-05 -3.10803e-05 1.05773e-09 -1.25311e-09 9.8066 -9.5117e-10 2.84219e-10 2.21142e-10
0.277 -0.000129299 2.37171e-05 -3.36002e-05 8.77472e-10 -1.36416e-09 9.8066 -9.53189e-10 2.43915e-10 2.26356e-10
0.278 -0.000129292 2.21762e-05 -3.0498e-05 7.3307e-10 -1.47358e-09 9.8066 -9.55182e-10 2.03043e-10 2.26892e-10
0.279 -0.000128015 2.25117e-05 -3.08624e-05 6.17249e-10 -1.58178e-09 9.8066 -9.5715e-10 1.61618e-10 2.22608e-10
0.28 -0.000128334 2.11844e-05 -3.30884e-05 5.2441e-10 -1.68918e-09 9.8066 -9.59095e-10 1.19658e-10 2.13366e-10
0.281 -0.000128987 2.35458e-05 -3.22154e-05 4.50083e-10 -1.79558e-09 9.8066 -9.61016e-10 7.71819e-11 1.99035e-10
0.283 -0.000126881 2.37162e-05 -2.96632e-05 3.42649e-10 -2.0068e-09 9.8066 -9.64792e-10 -9.25156e-12 1.54614e-10
0.284 -0.000127346 2.3641e-05 -3.00476e-05 2.7191e-10 -1.89704e-09 9.8066 -9.66645e-10 -5.30758e-11 1.24984e-10
0.285 -0.000130324 2.39646e-05 -2.8591e-05 1.78895e-10 -1.79041e-09 9.8066 -9.6847e-10 -9.71446e-11 9.11429e-11
0.286 -0.00012939 2.23169e-05 -2.8546e-05 -2.04093e-11 -1.68259e-09 9.8066 -9.70266e-10 -1.41326e-10 5.35915e-11
0.287 -0.000127798 2.13483e-05 -2.89712e-05 -4.40596e-10 -1.56696e-09 9.8066 -9.72029e-10 -1.85492e-10 1.27961e-11
0.288 -0.000131713 2.15113e-05 -2.98911e-05 -1.11152e-09 -1.44204e-09 9.8066 -9.73757e-10 -2.29548e-10 -3.08059e-11
0.289 -0.000130216 2.29687e-05 -3.05391e-05 -1.88175e-09 -1.31487e-09 9.8066 -9.75448e-10 -2.73435e-10 -7.67996e-11
0.29 -0.000130369 2.35762e-05 -2.90372e-05 -2.46621e-09 -1.19787e-09 9.8066 -9.77099e-10 -3.17113e-10 -1.24786e-10
0.291 -0.00012995 2.39723e-05 -3.05218e-05 -2.64214e-09 -1.10164e-09 9.8066 -9.78708e-10 -3.60536e-10 -1.74405e-10
0.292 -0.000131542 2.35502e-05 -3.18893e-05 -2.42913e-09 -1.02662e-09 9.8066 -9.80273e-10 -4.03634e-10 -2.25309e-10
0.293 -0.000130092 2.29109e-05 -3.19171e-05 -2.04889e-09 -9.63884e-10 9.8066 -9.8179e-10 -4.46331e-10 -2.77178e-10
0.294 -0.000128867 2.26138e-05 -3.25246e-05 -1.69242e-09 -9.0403e-10 9.8066 -9.83259e-10 -4.88549e-10 -3.2973e-10
0.295 -0.000128525 2.35101e-05 -3.22226e-05 -1.40814e-09 -8.43414e-10 9.8066 -9.84676e-10 -5.30221e-10 -3.82682e-10
0.296 -0.000127754 2.37269e-05 -3.22343e-05 -1.18579e-09 -7.81822e-10 9.8066 -9.8604e-10 -5.7128e-10 -4.35781e-10
0.297 -0.000128635 2.1476e-05 -3.50046e-05 -1.01311e-09 -7.19825e-10 9.8066 -9.87349e-10 -6.11667e-10 -4.88787e-10
0.298 -0.00012808 2.07593e-05 -3.52866e-05 -8.80031e-10 -6.57461e-10 9.8066 -9.886e-10 -6.51325e-10 -5.4147e-10
0.299 -0.00012873 2.3083e-05 -3.57675e-05 -7.7872e-10 -5.94972e-10 9.8066 -9.89793e-10 -6.902e-10 -5.93619e-10
0.3 -0.00013043 2.27526e-05 -3.64953e-05 -7.02746e-10 -5.32527e-10 9.8066 -9.90924e-10 -7.2824e-10 -6.45034e-10
0.301 -0.000128061 2.392e-05 -3.49491e-05 -6.47019e-10 -4.70382e-10 9.8066 -9.91992e-10 -7.65398e-10 -6.95526e-10
0.302 -0.000127758 2.19938e-05 -3.52392e-05 -6.07434e-10 -4.08359e-10 9.8066 -9.92996e-10 -8.01625e-10 -7.4492e-10
0.303 -0.000126428 2.21896e-05 -3.17428e-05 -5.80702e-10 -3.46681e-10 9.8066 -9.93934e-10 -8.36879e-10 -7.93049e-10
0.305 -0.000123985 2.66718e-05 -3.10935e-05 -5.56102e-10 -2.24358e-10 9.8066 -9.95604e-10 -9.04299e-10 -8.84894e-10
0.306 -0.000124555 2.72154e-05 -3.00941e-05 -5.54185e-10 -1.63725e-10 9.8066 -9.96334e-10 -9.36386e-10 -9.28324e-10
0.307 -0.000125126 2.80301e-05 -2.86288e-05 -5.50398e-10 -1.03601e-10 9.8066 -9.96991e-10 -9.67347e-10 -9.69914e-10
0.308 -0.00012822 2.65161e-05 -2.82957e-05 -4.60087e-10 -4.5877e-11 9.8066 -9.97574e-10 -9.97173e-10 -1.00954e-09
0.309 -0.000128134 2.6519e-05 -2.84006e-05 -8.64992e-12 9.42019e-12 9.8066 -9.98082e-10 -1.0259e-09 -1.04709e-09
0.31 -0.000129385 2.88455e-05 -2.93654e-05 1.09329e-09 7.08443e-11 9.8066 -9.98512e-10 -1.05356e-09 -1.08246e-09
0.311 -0.00012647 2.8369e-05 -2.86875e-05 2.75123e-09 1.51486e-10 9.8066 -9.98865e-10 -1.08017e-09 -1.11554e-09
0.312 -0.000125517 2.82533e-05 -2.67135e-05 4.41285e-09 2.53765e-10 9.8066 -9.99139e-10 -1.10564e-09 -1.14627e-09
0.313 -0.000125164 2.76554e-05 -2.66155e-05 5.43353e-09 3.63736e-10 9.8066 -9.99332e-10 -1.12979e-09 -1.17451e-09
0.314 -0.000126958 2.79307e-05 -2.68237e-05 5.51511e-09 4.59491e-10 9.8066 -9.99443e-10 -1.15248e-09 -1.20016e-09
0.315 -0.000126996 2.94898e-05 -2.67756e-05 4.84854e-09 5.25852e-10 9.8066 -9.99472e-10 -1.17359e-09 -1.22315e-09
0.316 -0.000128179 2.8397e-05 -2.74852e-05 3.8831e-09 5.66395e-10 9.8066 -9.99417e-10 -1.19309e-09 -1.24337e-09
0.317 -0.00012618 2.89562e-05 -2.83758e-05 2.96714e-09 5.96184e-10 9.8066 -9.99278e-10 -1.21099e-09 -1.26078e-09
0.318 -0.000127496 3.20656e-05 -2.88737e-05 2.20988e-09 6.28129e-10 9.8066 -9.99053e-10 -1.22727e-09 -1.27529e-09
0.319 -0.000125112 3.2553e-05 -3.02172e-05 1.5979e-09 6.6483e-10 9.8066 -9.98742e-10 -1.24194e-09 -1.28684e-09
0.32 -0.000127597 3.48338e-05 -3.06948e-05 1.10282e-09 7.05559e-10 9.8066 -9.98343e-10 -1.25502e-09 -1.29536e-09
0.321 -0.000128168 3.50042e-05 -2.932e-05 7.0152e-10 7.4937e-10 9.8066 -9.97855e-10 -1.26649e-09 -1.3008e-09
0.322 -0.000128434 3.59045e-05 -2.99983e-05 3.75329e-10 7.95537e-10 9.8066 -9.97278e-10 -1.27636e-09 -1.3031e-09
0.323 -0.000128176 3.31103e-05 -2.88807e-05 1.09338e-10 8.43551e-10 9.8066 -9.96611e-10 -1.28464e-09 -1.3022e-09
0.324 -0.000131545 3.48789e-05 -2.85696e-05 -1.08502e-10 8.92978e-10 9.8066 -9.95853e-10 -1.2913e-09 -1.29807e-09
0.325 -0.000130781 3.53655e-05 -2.6257e-05 -2.87596e-10 9.43505e-10 9.8066 -9.95003e-10 -1.29636e-09 -1.29065e-09
0.326 -0.000131716 3.69297e-05 -2.75257e-05 -4.35776e-10 9.94698e-10 9.8066 -9.9406e-10 -1.29981e-09 -1.2799e-09
0.327 -0.000132075 3.6612e-05 -2.73412e-05 -5.5928e-10 1.04657e-09 9.8066 -9.93024e-10 -1.30163e-09 -1.26577e-09
0.328 -0.000132531 3.69737e-05 -2.53705e-05 -6.62901e-10 1.09877e-09 9.8066 -9.91895e-10 -1.30182e-09 -1.24822e-09
0.329 -0.000133497 3.71606e-05 -2.59986e-05 -7.5059e-10 1.15128e-09 9.8066 -9.9067e-10 -1.30037e-09 -1.22722e-09
0.33 -0.000131362 3.75521e-05 -2.54478e-05 -8.25593e-10 1.20394e-09 9.8066 -9.8935e-10 -1.29728e-09 -1.20274e-09
0.332 -0.000129736 3.88944e-05 -2.65296e-05 -9.65359e-10 1.31011e-09 9.8066 -9.86423e-10 -1.2861e-09 -1.14317e-09
0.333 -0.000130355 3.73739e-05 -2.76357e-05 -1.10761e-09 1.3667e-09 9.8066 -9.84814e-10 -1.27795e-09 -1.10803e-09
0.334 -0.000128587 3.45171e-05 -2.64401e-05 -1.43177e-09 1.43264e-09 9.8066 -9.83107e-10 -1.26804e-09 -1.0693e-09
0.335 -0.000126858 3.37415e-05 -2.66055e-05 -2.01403e-09 1.51173e-09 9.8066 -9.81302e-10 -1.25634e-09 -1.02694e-09
0.336 -0.000126046 3.48834e-05 -2.58892e-05 -2.77342e-09 1.60005e-09 9.8066 -9.79399e-10 -1.24286e-09 -9.80945e-10
0.337 -0.000126217 3.52188e-05 -2.77199e-05 -3.4567e-09 1.68613e-09 9.8066 -9.77397e-10 -1.22763e-09 -9.31267e-10
0.338 -0.000125818 3.13884e-05 -3.0471e-05 -3.79156e-09 1.7574e-09 9.8066 -9.75295e-10 -1.21068e-09 -8.77888e-10
0.339 -0.0001266 3.04275e-05 -3.28197e-05 -3.69865e-09 1.80931e-09 9.8066 -9.73093e-10 -1.19202e-09 -8.20772e-10
0.34 -0.000124218 3.17396e-05 -3.1573e-05 -3.34791e-09 1.84752e-09 9.8066 -9.70791e-10 -1.17163e-09 -7.59892e-10
0.341 -0.000124814 3.44037e-05 -3.02291e-05 -2.92385e-09 1.78626e-09 9.8066 -9.68396e-10 -1.14964e-09 -6.95549e-10
0.342 -0.000123223 3.48571e-05 -3.12717e-05 -2.56832e-09 1.73065e-09 9.8066 -9.65915e-10 -1.12617e-09 -6.28005e-10
0.343 -0.000125033 3.5414e-05 -3.09432e-05 -2.25755e-09 1.63389e-09 9.8066 -9.63351e-10 -1.10141e-09 -5.57666e-10
0.344 -0.000124567 3.65195e-05 -3.10844e-05 -2.00197e-09 1.54258e-09 9.8066 -9.60705e-10 -1.07554e-09 -4.84901e-10
0.345 -0.000125411 3.65559e-05 -3.2796e-05 -1.79057e-09 1.45594e-09 9.8066 -9.5798e-10 -1.04872e-09 -4.10063e-10
0.346 -0.000126802 3.81895e-05 -3.42598e-05 -1.61482e-09 1.37328e-09 9.8066 -9.55176e-10 -1.02111e-09 -3.33477e-10
0.347 -0.00012718 3.69588e-05 -3.31919e-05 -1.46759e-09 1.2943e-09 9.8066 -9.52294e-10 -9.9286e-10 -2.55451e-10
0.348 -0.000126554 3.65658e-05 -2.94464e-05 -1.34346e-09 1.21843e-09 9.8066 -9.49336e-10 -9.64114e-10 -1.76273e-10
0.35 -0.000127723 4.0066e-05 -2.97123e-05 -1.14683e-09 1.07489e-09 9.8066 -9.43191e-10 -9.05649e-10 -1.55179e-11
0.351 -0.000125487 4.12186e-05 -2.7765e-05 -1.06808e-09 1.00647e-09 9.8066 -9.40005e-10 -8.76169e-10 6.55677e-11
0.352 -0.000126265 3.95769e-05 -2.78351e-05 -9.98949e-10 9.39958e-10 9.8066 -9.36744e-10 -8.46672e-10 1.46822e-10
0.353 -0.00012595 4.08817e-05 -2.60258e-05 -9.37596e-10 8.75215e-10 9.8066 -9.33407e-10 -8.17262e-10 2.28036e-10
0.354 -0.000125061 4.26922e-05 -2.68753e-05 -8.80703e-10 8.11941e-10 9.8066 -9.29996e-10 -7.88038e-10 3.0901e-10
0.355 -0.000125763 4.26193e-05 -2.74783e-05 -7.87168e-10 7.48746e-10 9.8066 -9.26509e-10 -7.59106e-10 3.8956e-10
0.356 -0.000126296 4.31152e-05 -2.96051e-05 -4.54241e-10 6.84017e-10 9.8066 -9.22946e-10 -7.30602e-10 4.69505e-10
0.357 -0.000125645 4.40142e-05 -2.8848e-05 4.47912e-10 6.22579e-10 9.8066 -9.19306e-10 -7.02686e-10 5.48671e-10
0.358 -0.000125931 4.51925e-05 -2.95188e-05 2.00077e-09 5.77176e-10 9.8066 -9.1559e-10 -6.75489e-10 6.26897e-10
0.359 -0.000127496 4.53745e-05 -2.97153e-05 3.79534e-09 5.55718e-10 9.8066 -9.11797e-10 -6.49057e-10 7.04019e-10
0.36 -0.000127597 4.43123e-05 -2.81659e-05 5.16394e-09 5.4974e-10 9.8066 -9.07926e-10 -6.23344e-10 7.79908e-10
0.361 -0.000126351 4.5402e-05 -2.84365e-05 5.6441e-09 5.38553e-10 9.8066 -9.03977e-10 -5.98267e-10 8.54459e-10
0.362 -0.00012586 4.63786e-05 -2.98799e-05 5.25713e-09 5.02537e-10 9.8066 -8.99949e-10 -5.73782e-10 9.27526e-10
0.363 -0.00012733 4.52862e-05 -2.97191e-05 4.37723e-09 3.86494e-10 9.8066 -8.95846e-10 -5.49835e-10 9.98854e-10
0.364 -0.000127667 4.45683e-05 -2.86773e-05 3.4466e-09 2.54281e-10 9.8066 -8.91672e-10 -5.26418e-10 1.06814e-09
0.366 -0.000125962 4.41938e-05 -3.05392e-05 2.02282e-09 -6.51996e-12 9.8066 -8.83124e-10 -4.81193e-10 1.1996e-09
0.367 -0.000125072 4.20169e-05 -3.19397e-05 1.51477e-09 -1.29244e-10 9.8066 -8.78756e-10 -4.59393e-10 1.26128e-09
0.368 -0.000124914 4.26115e-05 -2.87067e-05 1.10822e-09 -2.482e-10 9.8066 -8.74329e-10 -4.38138e-10 1.31993e-09
0.369 -0.000123591 4.42203e-05 -2.80904e-05 7.82833e-10 -3.63685e-10 9.8066 -8.69846e-10 -4.17427e-10 1.37535e-09
0.37 -0.000122687 4.49689e-05 -2.84449e-05 5.22438e-10 -4.76768e-10 9.8066 -8.6531e-10 -3.97257e-10 1.42733e-09
0.371 -0.000122565 4.44109e-05 -2.7458e-05 3.14254e-10 -5.8773e-10 9.8066 -8.60722e-10 -3.77624e-10 1.47566e-09
0.372 -0.000122549 4.4156e-05 -2.84104e-05 1.47799e-10 -6.96908e-10 9.8066 -8.56086e-10 -3.58522e-10 1.52015e-09
0.373 -0.000122962 4.31712e-05 -2.92922e-05 1.47717e-11 -8.04662e-10 9.8066 -8.51404e-10 -3.39943e-10 1.56063e-09
0.374 -0.000123601 4.30377e-05 -2.77958e-05 -9.15848e-11 -9.11369e-10 9.8066 -8.46677e-10 -3.21878e-10 1.59692e-09
0.375 -0.0001235 4.32858e-05 -2.91037e-05 -1.76447e-10 -1.01697e-09 9.8066 -8.41908e-10 -3.04316e-10 1.62886e-09
0.376 -0.000121784 4.3972e-05 -2.97928e-05 -2.44251e-10 -1.12179e-09 9.8066 -8.37098e-10 -2.87246e-10 1.65628e-09
0.377 -0.000124946 4.30838e-05 -2.80186e-05 -2.98287e-10 -1.22598e-09 9.8066 -8.3225e-10 -2.70657e-10 1.67904e-09
0.379 -0.000124319 4.37789e-05 -2.96531e-05 -3.83479e-10 -1.43246e-09 9.8066 -8.22446e-10 -2.38859e-10 1.71001e-09
0.38 -0.000123034 4.34669e-05 -2.96613e-05 -4.6432e-10 -1.53331e-09 9.8066 -8.17492e-10 -2.23597e-10 1.71796e-09
0.381 -0.000123605 4.19383e-05 -3.0712e-05 -6.83165e-10 -1.62687e-09 9.8066 -8.12507e-10 -2.08699e-10 1.7207e-09
0.382 -0.000123987 4.09286e-05 -2.87016e-05 -1.14499e-09 -1.70782e-09 9.8066 -8.07491e-10 -1.94127e-10 1.71811e-09
0.385 -0.000122747 3.96835e-05 -3.26164e-05 -3.0191e-09 -1.92053e-09 9.8066 -7.92272e-10 -1.52408e-10 1.67729e-09
0.386 -0.000123453 3.91211e-05 -3.03771e-05 -3.04965e-09 -2.0168e-09 9.8066 -7.87147e-10 -1.39244e-10 1.65234e-09
0.387 -0.000124137 4.08766e-05 -3.29747e-05 -2.73941e-09 -2.12992e-09 9.8066 -7.81997e-10 -1.26451e-10 1.62157e-09
0.388 -0.000124305 4.16848e-05 -3.08017e-05 -2.33033e-09 -2.08277e-09 9.8066 -7.76824e-10 -1.13997e-10 1.58542e-09
0.389 -0.000124883 4.16702e-05 -2.97185e-05 -1.96999e-09 -2.0399e-09 9.8066 -7.71631e-10 -1.01851e-10 1.54432e-09
0.39 -0.000123873 4.21376e-05 -3.07608e-05 -1.68059e-09 -1.99858e-09 9.8066 -7.66419e-10 -8.99857e-11 1.49863e-09
0.391 -0.00012443 4.18987e-05 -3.01456e-05 -1.4496e-09 -1.95889e-09 9.8066 -7.6119e-10 -7.83789e-11 1.44872e-09
0.393 -0.000123441 4.1204e-05 -2.98963e-05 -1.11831e-09 -1.88534e-09 9.8066 -7.50684e-10 -5.58627e-11 1.33748e-09
0.394 -0.000119403 4.03162e-05 -3.14254e-05 -1.00123e-09 -1.85133e-09 9.8066 -7.4541e-10 -4.49191e-11 1.27673e-09
0.395 -0.000119911 3.86611e-05 -3.18852e-05 -9.07921e-10 -1.81938e-09 9.8066 -7.40123e-10 -3.41648e-11 1.2129e-09
0.396 -0.000119152 3.8076e-05 -3.20499e-05 -8.33607e-10 -1.78937e-09 9.8066 -7.34825e-10 -2.35862e-11 1.14623e-09
0.398 -0.00011859 3.60074e-05 -3.09416e-05 -7.27617e-10 -1.73502e-09 9.8066 -7.24198e-10 -2.90604e-12 1.00522e-09
0.399 -0.000117782 3.39657e-05 -2.83842e-05 -6.90432e-10 -1.71056e-09 9.8066 -7.1887e-10 7.21839e-12 9.31262e-10
0.4 -0.000117964 3.32358e-05 -2.97822e-05 -6.60917e-10 -1.68771e-09 9.8066 -7.13535e-10 1.7213e-11 8.5523e-10
0.401 -0.000116931 3.35017e-05 -2.76296e-05 -6.37167e-10 -1.66652e-09 9.8066 -7.08192e-10 2.70866e-11 7.77283e-10
0.402 -0.000117554 3.42408e-05 -2.70732e-05 -6.02154e-10 -1.64723e-09 9.8066 -7.02842e-10 3.68399e-11 6.97565e-10
0.403 -0.000120271 3.37636e-05 -2.67702e-05 -4.26634e-10 -1.63178e-09 9.8066 -6.97486e-10 4.64447e-11 6.16209e-10
0.404 -0.00011766 3.31592e-05 -2.51716e-05 2.03082e-10 -1.61864e-09 9.8066 -6.92124e-10 5.58368e-11 5.33332e-10
0.405 -0.000117162 3.35319e-05 -2.48877e-05 1.50802e-09 -1.59649e-09 9.8066 -6.86757e-10 6.49517e-11 4.49042e-10
0.406 -0.000118602 3.25085e-05 -2.50914e-05 3.2565e-09 -1.55381e-09 9.8066 -6.81384e-10 7.37875e-11 3.63429e-10
0.407 -0.000118382 3.27779e-05 -2.61443e-05 4.82464e-09 -1.49217e-09 9.8066 -6.76007e-10 8.24354e-11 2.7661e-10
0.408 -0.000118453 2.9543e-05 -2.52368e-05 5.62491e-09 -1.42947e-09 9.8066 -6.70626e-10 9.10441e-11 1.88664e-10
0.409 -0.000117854 2.9553e-05 -2.58481e-05 5.5165e-09 -1.34011e-09 9.8066 -6.65246e-10 9.96694e-11 9.98495e-11
0.41 -0.000114835 2.92375e-05 -2.61578e-05 4.77064e-09 -1.28103e-09 9.8066 -6.59871e-10 1.08302e-10 1.04117e-11
0.411 -0.000114768 2.8742e-05 -2.63595e-05 3.84073e-09 -1.24508e-09 9.8066 -6.54506e-10 1.16877e-10 -7.94634e-11
0.414 -0.00011414 2.41873e-05 -2.42681e-05 1.80983e-09 -1.14561e-09 9.8066 -6.38511e-10 1.41401e-10 -3.49662e-10
0.415 -0.000115264 2.50604e-05 -2.37499e-05 1.3884e-09 -1.10495e-09 9.8066 -6.33225e-10 1.48902e-10 -4.39327e-10
0.416 -0.000115216 2.33968e-05 -2.36669e-05 1.05529e-09 -1.06156e-09 9.8066 -6.27968e-10 1.5594e-10 -5.28504e-10
0.417 -0.000116169 2.41925e-05 -2.18971e-05 7.93039e-10 -1.01606e-09 9.8066 -6.22743e-10 1.62444e-10 -6.17042e-10
0.418 -0.000115821 2.37136e-05 -2.13176e-05 5.87632e-10 -9.69071e-10 9.8066 -6.17554e-10 1.68349e-10 -7.04794e-10
0.419 -0.000115291 2.26513e-05 -2.14089e-05 4.27752e-10 -9.21156e-10 9.8066 -6.12404e-10 1.73593e-10 -7.91614e-10
0.42 -0.000115936 2.19045e-05 -2.16136e-05 3.0436e-10 -8.72318e-10 9.8066 -6.07295e-10 1.78119e-10 -8.77368e-10
0.421 -0.000118204 2.2148e-05 -2.10515e-05 2.10195e-10 -8.23043e-10 9.8066 -6.0223e-10 1.81872e-10 -9.61927e-10
0.422 -0.000116043 2.30146e-05 -2.09284e-05 1.39487e-10 -7.73483e-10 9.8066 -5.97213e-10 1.84801e-10 -1.04517e-09
0.423 -0.000114615 2.2991e-05 -1.97651e-05 8.76256e-11 -7.23762e-10 9.8066 -5.92246e-10 1.86858e-10 -1.12698e-09
0.424 -0.000113646 2.32836e-05 -2.04698e-05 5.07979e-11 -6.73922e-10 9.8066 -5.87331e-10 1.87998e-10 -1.20725e-09
0.425 -0.000112153 2.37618e-05 -2.12061e-05 2.59293e-11 -6.24211e-10 9.8066 -5.8247e-10 1.88177e-10 -1.28587e-09
0.426 -0.000110683 2.15188e-05 -2.15174e-05 7.98126e-12 -5.74738e-10 9.8066 -5.77667e-10 1.8736e-10 -1.36275e-09
0.427 -0.000108857 2.24456e-05 -2.13213e-05 -2.76675e-11 -5.2461e-10 9.8066 -5.72923e-10 1.85521e-10 -1.43779e-09
0.428 -0.000108766 2.31167e-05 -2.03335e-05 -1.59222e-10 -4.70079e-10 9.8066 -5.6824e-10 1.82657e-10 -1.51091e-09
0.429 -0.000108806 2.39682e-05 -1.99663e-05 -5.01934e-10 -4.05046e-10 9.8066 -5.63621e-10 1.78764e-10 -1.58202e-09
0.43 -0.000109159 2.31879e-05 -1.99805e-05 -1.1001e-09 -3.27214e-10 9.8066 -5.59067e-10 1.73817e-10 -1.65106e-09
0.431 -0.000108324 2.14557e-05 -2.05372e-05 -1.84431e-09 -1.91289e-10 9.8066 -5.54575e-10 1.67835e-10 -1.71777e-09
0.432 -0.00010805 2.17647e-05 -2.37148e-05 -2.43213e-09 -6.17509e-11 9.8066 -5.50145e-10 1.60817e-10 -1.78193e-09
0.433 -0.000107184 2.32636e-05 -2.43564e-05 -2.62447e-09 5.06151e-11 9.8066 -5.45772e-10 1.52769e-10 -1.8433e-09
0.434 -0.00010685 2.38114e-05 -2.46932e-05 -2.4145e-09 1.43866e-10 9.8066 -5.41456e-10 1.43723e-10 -1.90164e-09
0.435 -0.000105477 2.24557e-05 -2.54934e-05 -2.01301e-09 2.25939e-10 9.8066 -5.37193e-10 1.33722e-10 -1.95678e-09
0.436 -0.000104227 2.39741e-05 -2.52803e-05 -1.62344e-09 3.0661e-10 9.8066 -5.32982e-10 1.2281e-10 -2.00851e-09
0.437 -0.000104076 2.3604e-05 -2.50698e-05 -1.30573e-09 3.9002e-10 9.8066 -5.2882e-10 1.11026e-10 -2.05665e-09
0.438 -0.000102254 2.54233e-05 -2.52013e-05 -1.05148e-09 4.76229e-10 9.8066 -5.24706e-10 9.84071e-11 -2.10102e-09
0.439 -0.000102249 2.49495e-05 -2.5361e-05 -8.48211e-10 5.64837e-10 9.8066 -5.20638e-10 8.49872e-11 -2.14144e-09
0.44 -0.000103059 2.2738e-05 -2.47051e-05 -6.85601e-10 6.55445e-10 9.8066 -5.16614e-10 7.07979e-11 -2.17776e-09
0.441 -0.000100642 2.28573e-05 -2.36325e-05 -5.55678e-10 7.47708e-10 9.8066 -5.12633e-10 5.58696e-11 -2.20982e-09
0.442 -0.000101343 2.1757e-05 -2.30076e-05 -4.51758e-10 8.41409e-10 9.8066 -5.08692e-10 4.02312e-11 -2.23745e-09
0.443 -0.000101543 2.05493e-05 -2.37879e-05 -3.68792e-10 9.36334e-10 9.8066 -5.0479e-10 2.39107e-11 -2.26053e-09
0.444 -0.000102724 2.07671e-05 -2.57358e-05 -3.02421e-10 1.03231e-09 9.8066 -5.00927e-10 6.93483e-12 -2.2789e-09
0.445 -0.000100678 2.02431e-05 -2.43547e-05 -2.49402e-10 1.12914e-09 9.8066 -4.97099e-10 -1.06704e-11 -2.29243e-09
0.446 -9.87743e-05 2.02057e-05 -2.28662e-05 -2.06979e-10 1.22681e-09 9.8066 -4.93306e-10 -2.88799e-11 -2.30099e-09
0.447 -9.97461e-05 2.07957e-05 -2.08963e-05 -1.73117e-10 1.32514e-09 9.8066 -4.89547e-10 -4.76695e-11 -2.30445e-09
0.448 -0.000101349 1.95992e-05 -1.91293e-05 -1.46002e-10 1.4241e-09 9.8066 -4.85819e-10 -6.70161e-11 -2.30269e-09
0.449 -0.000101958 1.8637e-05 -1.72698e-05 -1.25588e-10 1.36349e-09 9.8066 -4.82122e-10 -8.68803e-11 -2.29611e-09
0.45 -0.0001033 1.66685e-05 -1.87445e-05 -3.43394e-11 1.30594e-09 9.8066 -4.78452e-10 -1.07245e-10 -2.28508e-09
0.451 -0.000103452 1.71113e-05 -1.74066e-05 3.84672e-10 1.24995e-09 9.8066 -4.74807e-10 -1.28135e-10 -2.26994e-09
0.452 -0.00010411 1.85907e-05 -1.68899e-05 1.43733e-09 1.20322e-09 9.8066 -4.71186e-10 -1.49595e-10 -2.25101e-09
0.453 -0.000106504 1.62853e-05 -1.60116e-05 3.07882e-09 1.17844e-09 9.8066 -4.67586e-10 -1.7163e-10 -2.22859e-09
0.454 -0.000107199 1.48433e-05 -1.65547e-05 4.79085e-09 1.17967e-09 9.8066 -4.64006e-10 -1.94161e-10 -2.20295e-09
0.455 -0.000107816 1.54603e-05 -1.77458e-05 5.91604e-09 1.19362e-09 9.8066 -4.60444e-10 -2.17031e-10 -2.17434e-09
0.456 -0.000107103 1.63475e-05 -1.67587e-05 6.10925e-09 1.19815e-09 9.8066 -4.56899e-10 -2.40076e-10 -2.14297e-09
0.457 -0.000108323 1.7634e-05 -1.74918e-05 5.51826e-09 1.17738e-09 9.8066 -4.5337e-10 -2.63186e-10 -2.10901e-09
0.458 -0.000107164 1.86128e-05 -1.87563e-05 4.58374e-09 1.13182e-09 9.8066 -4.49857e-10 -2.86322e-10 -2.07271e-09
0.459 -0.000108191 1.7753e-05 -1.94716e-05 3.67557e-09 1.07662e-09 9.8066 -4.46356e-10 -3.09485e-10 -2.0342e-09
0.46 -0.000108575 1.74451e-05 -1.8766e-05 2.9237e-09 1.02482e-09 9.8066 -4.42869e-10 -3.3268e-10 -1.99367e-09
0.461 -0.000108289 1.69429e-05 -2.06061e-05 2.32011e-09 9.79731e-10 9.8066 -4.39393e-10 -3.55917e-10 -1.9513e-09
0.463 -0.000105134 1.82678e-05 -1.86413e-05 1.44844e-09 9.06698e-10 9.8066 -4.32473e-10 -4.02546e-10 -1.86151e-09
0.465 -0.00010653 1.98298e-05 -1.67021e-05 8.88407e-10 8.50518e-10 9.8066 -4.2559e-10 -4.49422e-10 -1.76588e-09
0.466 -0.00010528 2.26485e-05 -1.67902e-05 6.88722e-10 8.27017e-10 9.8066 -4.22161e-10 -4.72964e-10 -1.71615e-09
0.467 -0.000103331 2.05158e-05 -1.55554e-05 5.28781e-10 8.05918e-10 9.8066 -4.1874e-10 -4.96579e-10 -1.66527e-09
0.468 -0.000101825 1.9587e-05 -1.46228e-05 4.00626e-10 7.86919e-10 9.8066 -4.15325e-10 -5.20267e-10 -1.61335e-09
0.469 -0.000101472 2.04918e-05 -1.47815e-05 2.97822e-10 7.69895e-10 9.8066 -4.11916e-10 -5.4403e-10 -1.56045e-09
0.473 -0.000103672 2.39168e-05 -1.60945e-05 -1.73294e-11 5.59602e-10 9.8066 -3.9838e-10 -6.39048e-10 -1.34223e-09
0.477 -0.000100256 2.4543e-05 -1.52702e-05 -1.07826e-09 3.51687e-10 9.8066 -3.85177e-10 -7.30153e-10 -1.12367e-09
0.478 -0.000100773 2.35459e-05 -1.37861e-05 -1.82933e-09 3.26187e-10 9.8066 -3.81954e-10 -7.51691e-10 -1.0704e-09
0.479 -0.000101724 2.42809e-05 -1.20554e-05 -2.53372e-09 3.00134e-10 9.8066 -3.78767e-10 -7.72651e-10 -1.01801e-09
0.48 -0.000100883 2.39052e-05 -1.23337e-05 -2.91086e-09 2.6077e-10 9.8066 -3.7562e-10 -7.93019e-10 -9.6663e-10
0.481 -0.000100683 2.26251e-05 -1.0332e-05 -2.85593e-09 2.02252e-10 9.8066 -3.72516e-10 -8.12757e-10 -9.16402e-10
0.482 -9.97541e-05 2.19863e-05 -9.87956e-06 -2.51927e-09 1.295e-10 9.8066 -3.69457e-10 -8.31811e-10 -8.67451e-10
0.483 -9.8253e-05 2.19314e-05 -8.5769e-06 -2.13528e-09 5.26788e-11 9.8066 -3.66446e-10 -8.50123e-10 -8.19915e-10
0.484 -9.7654e-05 2.20832e-05 -8.24912e-06 -1.81516e-09 -2.17746e-11 9.8066 -3.63485e-10 -8.67641e-10 -7.73913e-10
0.485 -9.69321e-05 2.07729e-05 -7.78925e-06 -1.56334e-09 -9.29729e-11 9.8066 -3.60577e-10 -8.84314e-10 -7.29566e-10
0.486 -9.77708e-05 1.99085e-05 -7.49893e-06 -1.36674e-09 -1.61394e-10 9.8066 -3.57723e-10 -9.00097e-10 -6.86983e-10
0.487 -9.90776e-05 1.91584e-05 -8.03896e-06 -1.21442e-09 -2.27453e-10 9.8066 -3.54927e-10 -9.14946e-10 -6.46273e-10
0.488 -9.8502e-05 1.61872e-05 -7.77466e-06 -1.09728e-09 -2.9158e-10 9.8066 -3.5219e-10 -9.28822e-10 -6.07534e-10
0.489 -9.78864e-05 1.46689e-05 -9.53183e-06 -1.00844e-09 -3.54238e-10 9.8066 -3.49513e-10 -9.41685e-10 -5.70865e-10
0.49 -9.71348e-05 1.51597e-05 -1.1569e-05 -9.4217e-10 -4.15433e-10 9.8066 -3.469e-10 -9.53497e-10 -5.36355e-10
0.491 -9.5483e-05 1.50798e-05 -1.25394e-05 -8.93994e-10 -4.75728e-10 9.8066 -3.44352e-10 -9.64224e-10 -5.04095e-10
0.492 -9.47597e-05 1.30823e-05 -1.23279e-05 -8.60232e-10 -5.35039e-10 9.8066 -3.41871e-10 -9.73831e-10 -4.74165e-10
0.493 -9.44254e-05 1.27298e-05 -1.09814e-05 -8.38032e-10 -5.93681e-10 9.8066 -3.39458e-10 -9.82285e-10 -4.46649e-10
0.494 -9.6935e-05 1.42643e-05 -1.23544e-05 -8.25033e-10 -6.51813e-10 9.8066 -3.37116e-10 -9.89556e-10 -4.21622e-10
0.495 -9.81783e-05 1.35935e-05 -1.23413e-05 -8.19293e-10 -7.09569e-10 9.8066 -3.34845e-10 -9.95613e-10 -3.99158e-10
0.496 -9.75412e-05 1.2898e-05 -1.03999e-05 -8.18132e-10 -7.66843e-10 9.8066 -3.32648e-10 -1.00043e-09 -3.79328e-10
0.497 -9.67074e-05 1.47165e-05 -1.04363e-05 -7.88681e-10 -8.24922e-10 9.8066 -3.30526e-10 -1.00399e-09 -3.62199e-10
0.498 -9.68157e-05 1.65368e-05 -1.10893e-05 -5.48677e-10 -8.85398e-10 9.8066 -3.28479e-10 -1.00631e-09 -3.47838e-10
0.499 -9.71613e-05 1.58331e-05 -1.04674e-05 2.32322e-10 -9.44611e-10 9.8066 -3.26511e-10 -1.00745e-09 -3.36315e-10
0.501 -9.55467e-05 1.55725e-05 -8.44432e-06 3.4244e-09 -1.01195e-09 9.8066 -3.22811e-10 -1.00626e-09 -3.22061e-10
0.502 -9.68518e-05 1.59411e-05 -7.87391e-06 4.80951e-09 -1.01756e-09 9.8066 -3.21082e-10 -1.00375e-09 -3.1943e-10
0.503 -9.55886e-05 1.53196e-05 -1.03299e-05 5.33224e-09 -1.02704e-09 9.8066 -3.19436e-10 -9.99763e-10 -3.19873e-10
0.504 -9.41935e-05 1.3801e-05 -9.46889e-06 4.96461e-09 -1.06022e-09 9.8066 -3.17874e-10 -9.94161e-10 -3.23403e-10
0.505 -9.58501e-05 1.0421e-05 -9.83192e-06 4.08159e-09 -1.12289e-09 9.8066 -3.16397e-10 -9.86885e-10 -3.30095e-10
0.506 -9.56759e-05 1.06018e-05 -9.80704e-06 3.11544e-09 -1.20338e-09 9.8066 -3.15005e-10 -9.77925e-10 -3.39968e-10
0.507 -9.51363e-05 9.8507e-06 -1.1303e-05 2.28232e-09 -1.28626e-09 9.8066 -3.13701e-10 -9.67288e-10 -3.53092e-10
0.508 -9.41914e-05 9.59602e-06 -1.26199e-05 1.60638e-09 -1.36437e-09 9.8066 -3.12485e-10 -9.54981e-10 -3.69501e-10
0.509 -9.38451e-05 1.02292e-05 -1.20233e-05 1.06003e-09 -1.43767e-09 9.8066 -3.11358e-10 -9.41009e-10 -3.89231e-10
0.51 -9.22124e-05 1.08845e-05 -1.06261e-05 6.17315e-10 -1.507e-09 9.8066 -3.1032e-10 -9.25379e-10 -4.12331e-10
0.511 -9.30032e-05 1.32814e-05 -9.66153e-06 2.57936e-10 -1.57338e-09 9.8066 -3.09373e-10 -9.08094e-10 -4.38839e-10
0.512 -9.18374e-05 1.15107e-05 -8.82843e-06 -3.48102e-11 -1.63727e-09 9.8066 -3.08518e-10 -8.89155e-10 -4.68785e-10
0.513 -9.18059e-05 1.08803e-05 -7.15752e-06 -2.74181e-10 -1.69931e-09 9.8066 -3.07755e-10 -8.68562e-10 -5.02209e-10
0.514 -9.084e-05 1.04314e-05 -8.14976e-06 -4.05109e-10 -1.61988e-09 9.8066 -3.07081e-10 -8.46526e-10 -5.38686e-10
0.515 -9.04223e-05 8.80202e-06 -5.30122e-06 -5.03028e-10 -1.54196e-09 9.8066 -3.06495e-10 -8.23242e-10 -5.77822e-10
0.516 -9.02565e-05 1.01566e-05 -5.32622e-06 -5.748e-10 -1.4658e-09 9.8066 -3.05994e-10 -7.98894e-10 -6.19248e-10
0.517 -8.87707e-05 1.04162e-05 -4.72471e-06 -6.25541e-10 -1.39129e-09 9.8066 -3.05576e-10 -7.73651e-10 -6.62617e-10
0.518 -8.82859e-05 8.1445e-06 -4.22249e-06 -6.59645e-10 -1.31841e-09 9.8066 -3.05241e-10 -7.47674e-10 -7.07603e-10
0.519 -8.80636e-05 6.64371e-06 -4.93925e-06 -6.80537e-10 -1.24719e-09 9.8066 -3.04986e-10 -7.21109e-10 -7.53903e-10
0.52 -8.83518e-05 8.07053e-06 -4.90805e-06 -6.91284e-10 -1.17759e-09 9.8066 -3.04812e-10 -6.94096e-10 -8.01228e-10
0.521 -8.80989e-05 9.28641e-06 -5.23327e-06 -6.99356e-10 -1.10947e-09 9.8066 -3.04717e-10 -6.66758e-10 -8.4931e-10
0.522 -8.90704e-05 7.71606e-06 -4.44095e-06 -7.40574e-10 -1.04145e-09 9.8066 -3.04701e-10 -6.39197e-10 -8.979e-10
0.523 -8.95075e-05 7.83581e-06 -5.3645e-06 -9.08647e-10 -9.68662e-10 9.8066 -3.04763e-10 -6.11493e-10 -9.46766e-10
0.524 -8.7168e-05 7.13134e-06 -4.49346e-06 -1.31307e-09 -8.85187e-10 9.8066 -3.04903e-10 -5.83727e-10 -9.95693e-10
0.525 -8.75234e-05 9.01462e-06 -4.88913e-06 -1.9572e-09 -7.90773e-10 9.8066 -3.05122e-10 -5.55998e-10 -1.04448e-09
0.526 -8.83027e-05 1.1094e-05 -4.72634e-06 -2.65857e-09 -6.94065e-10 9.8066 -3.05419e-10 -5.28436e-10 -1.09292e-09
0.527 -8.89557e-05 1.01919e-05 -5.66344e-06 -3.12642e-09 -6.08089e-10 9.8066 -3.05794e-10 -5.01173e-10 -1.14081e-09
0.528 -9.03868e-05 8.58061e-06 -5.22869e-06 -3.1701e-09 -5.41795e-10 9.8066 -3.06247e-10 -4.7432e-10 -1.188e-09
0.529 -8.90364e-05 8.63312e-06 -6.2126e-06 -2.85403e-09 -4.94243e-10 9.8066 -3.06779e-10 -4.47962e-10 -1.2343e-09
0.53 -8.88572e-05 9.17719e-06 -7.2648e-06 -2.41215e-09 -4.55706e-10 9.8066 -3.0739e-10 -4.22166e-10 -1.27956e-09
0.531 -8.72405e-05 9.63351e-06 -5.14498e-06 -2.01177e-09 -4.17661e-10 9.8066 -3.0808e-10 -3.96996e-10 -1.32365e-09
0.532 -8.57899e-05 8.94391e-06 -5.52418e-06 -1.68357e-09 -3.77366e-10 9.8066 -3.0885e-10 -3.72517e-10 -1.36643e-09
0.533 -8.58597e-05 6.90774e-06 -6.37746e-06 -1.41561e-09 -3.35114e-10 9.8066 -3.09701e-10 -3.48788e-10 -1.40777e-09
0.534 -8.5964e-05 9.42419e-06 -5.81318e-06 -1.19582e-09 -2.91345e-10 9.8066 -3.10632e-10 -3.25869e-10 -1.44755e-09
0.535 -8.7242e-05 8.00898e-06 -4.62271e-06 -1.01461e-09 -2.46229e-10 9.8066 -3.11644e-10 -3.03817e-10 -1.48567e-09
0.536 -8.56798e-05 7.54364e-06 -5.9712e-06 -8.64428e-10 -2.00069e-10 9.8066 -3.12739e-10 -2.82685e-10 -1.52201e-09
0.537 -8.52547e-05 6.99419e-06 -5.74065e-06 -7.39124e-10 -1.53196e-10 9.8066 -3.13916e-10 -2.62523e-10 -1.55647e-09
0.538 -8.33402e-05 5.75705e-06 -3.63768e-06 -6.33506e-10 -1.05666e-10 9.8066 -3.15176e-10 -2.43381e-10 -1.58896e-09
0.539 -8.48031e-05 7.55513e-06 -3.66951e-06 -5.43934e-10 -5.76894e-11 9.8066 -3.1652e-10 -2.25302e-10 -1.61939e-09
0.54 -8.46402e-05 8.20432e-06 -4.10341e-06 -4.6703e-10 -9.30524e-12 9.8066 -3.17949e-10 -2.0833e-10 -1.64766e-09
0.541 -8.39347e-05 8.54022e-06 -4.04833e-06 -4.00315e-10 3.93557e-11 9.8066 -3.19463e-10 -1.92505e-10 -1.6737e-09
0.542 -8.40017e-05 9.06251e-06 -4.88704e-06 -3.41886e-10 8.82061e-11 9.8066 -3.21063e-10 -1.77865e-10 -1.69743e-09
0.543 -8.29444e-05 7.64273e-06 -5.06182e-06 -2.89729e-10 1.37238e-10 9.8066 -3.22749e-10 -1.64447e-10 -1.71878e-09
0.544 -8.29426e-05 7.58303e-06 -5.09817e-06 -2.30642e-10 1.86006e-10 9.8066 -3.24522e-10 -1.5229e-10 -1.73766e-09
0.545 -8.50153e-05 8.84463e-06 -6.26932e-06 -5.32627e-11 2.32539e-10 9.8066 -3.26383e-10 -1.4146e-10 -1.75403e-09
0.546 -8.57009e-05 7.77232e-06 -6.43647e-06 5.44079e-10 2.77639e-10 9.8066 -3.28332e-10 -1.32055e-10 -1.76782e-09
0.547 -8.46712e-05 8.20559e-06 -5.72402e-06 1.81127e-09 3.31672e-10 9.8066 -3.30371e-10 -1.24179e-10 -1.77897e-09
0.548 -8.40959e-05 8.524e-06 -5.12663e-06 3.56697e-09 4.06583e-10 9.8066 -3.32498e-10 -1.17875e-10 -1.78744e-09
0.549 -8.20961e-05 8.49506e-06 -6.97799e-06 5.21011e-09 5.0243e-10 9.8066 -3.34716e-10 -1.13093e-10 -1.79316e-09
0.55 -8.3333e-05 8.7043e-06 -7.16806e-06 6.1286e-09 6.02538e-10 9.8066 -3.37025e-10 -1.09716e-10 -1.79609e-09
0.551 -8.2669e-05 9.1936e-06 -8.05454e-06 6.08431e-09 7.36834e-10 9.8066 -3.39421e-10 -1.0756e-10 -1.79598e-09
0.552 -8.0401e-05 9.38155e-06 -6.93095e-06 5.35983e-09 8.4152e-10 9.8066 -3.41901e-10 -1.06507e-10 -1.79263e-09
0.553 -7.87426e-05 9.9173e-06 -5.32462e-06 4.41029e-09 9.22813e-10 9.8066 -3.44461e-10 -1.06503e-10 -1.78582e-09
0.556 -7.86934e-05 1.02741e-05 -6.07633e-06 2.27294e-09 1.15585e-09 9.8066 -3.52591e-10 -1.12548e-10 -1.74289e-09
0.557 -7.86767e-05 1.05553e-05 -5.9368e-06 1.82005e-09 1.2421e-09 9.8066 -3.5544e-10 -1.16513e-10 -1.72049e-09
0.558 -7.59038e-05 1.31416e-05 -4.94814e-06 1.45746e-09 1.3316e-09 9.8066 -3.58355e-10 -1.21418e-10 -1.69376e-09
0.559 -7.60134e-05 1.28481e-05 -5.8122e-06 1.16712e-09 1.42377e-09 9.8066 -3.61332e-10 -1.27242e-10 -1.66257e-09
0.56 -7.66126e-05 1.2456e-05 -6.6656e-06 9.34654e-10 1.51772e-09 9.8066 -3.64368e-10 -1.33963e-10 -1.62677e-09
0.562 -7.65908e-05 1.19323e-05 -5.60434e-06 5.99891e-10 1.71003e-09 9.8066 -3.70611e-10 -1.49999e-10 -1.54075e-09
0.563 -7.58921e-05 1.15296e-05 -4.08065e-06 4.8085e-10 1.80765e-09 9.8066 -3.73813e-10 -1.59267e-10 -1.49028e-09
0.564 -7.74492e-05 1.2034e-05 -3.59562e-06 3.85754e-10 1.90607e-09 9.8066 -3.77065e-10 -1.69336e-10 -1.43466e-09
0.565 -7.82976e-05 1.06923e-05 -4.85454e-06 3.09727e-10 2.00506e-09 9.8066 -3.80366e-10 -1.8018e-10 -1.37379e-09
0.566 -7.91762e-05 1.07297e-05 -4.83809e-06 2.48979e-10 2.10435e-09 9.8066 -3.83713e-10 -1.91776e-10 -1.30755e-09
0.567 -7.63885e-05 1.12119e-05 -3.00818e-06 2.00452e-10 2.2041e-09 9.8066 -3.87105e-10 -2.04097e-10 -1.23583e-09
0.568 -7.60664e-05 7.91189e-06 -1.92382e-06 1.59591e-10 2.30408e-09 9.8066 -3.9054e-10 -2.17118e-10 -1.15853e-09
0.569 -7.69548e-05 5.73012e-06 -2.27678e-06 1.0518e-10 2.40482e-09 9.8066 -3.94016e-10 -2.30799e-10 -1.07556e-09
0.57 -7.52503e-05 5.84378e-06 -2.0973e-06 -3.47287e-11 2.51006e-09 9.8066 -3.97531e-10 -2.45086e-10 -9.86816e-10
0.571 -7.56379e-05 5.80801e-06 -2.76028e-06 -3.75437e-10 2.62577e-09 9.8066 -4.01084e-10 -2.59924e-10 -8.92228e-10
0.572 -7.51725e-05 6.24469e-06 -3.09152e-06 -9.81885e-10 2.48828e-09 9.8066 -4.04672e-10 -2.75252e-10 -7.92572e-10
0.573 -7.43327e-05 5.96228e-06 -2.89129e-06 -1.732e-09 2.36345e-09 9.8066 -4.08292e-10 -2.91049e-10 -6.88574e-10
0.575 -7.54675e-05 5.2627e-06 -9.18457e-08 -2.59661e-09 2.10183e-09 9.8066 -4.15619e-10 -3.24055e-10 -4.70203e-10
0.579 -7.16163e-05 2.6204e-06 -2.87634e-06 -1.32375e-09 1.47771e-09 9.8066 -4.30563e-10 -3.95081e-10 -8.4246e-12
0.58 -7.44131e-05 1.49181e-06 -1.64903e-06 -1.06767e-09 1.33058e-09 9.8066 -4.34349e-10 -4.13686e-10 1.09183e-10
0.581 -7.52372e-05 1.21019e-07 -2.11103e-06 -8.63265e-10 1.18861e-09 9.8066 -4.38151e-10 -4.32575e-10 2.26736e-10
0.582 -7.68642e-05 1.5118e-07 -3.52919e-06 -7.00205e-10 1.05107e-09 9.8066 -4.4197e-10 -4.51725e-10 3.43815e-10
0.583 -7.79931e-05 5.98947e-07 -3.47043e-06 -5.70258e-10 9.1757e-10 9.8066 -4.45802e-10 -4.71116e-10 4.60036e-10
0.584 -7.95816e-05 -2.80737e-07 -2.72579e-06 -4.66647e-10 7.87449e-10 9.8066 -4.49648e-10 -4.90728e-10 5.7503e-10
0.585 -7.83161e-05 2.04211e-06 -3.56955e-06 -3.84124e-10 6.60431e-10 9.8066 -4.53506e-10 -5.10545e-10 6.88453e-10
0.586 -7.96592e-05 4.80006e-07 -4.84778e-06 -3.18448e-10 5.35983e-10 9.8066 -4.57375e-10 -5.30551e-10 7.99979e-10
0.587 -8.03704e-05 2.53781e-07 -7.00488e-06 -2.66083e-10 4.13754e-10 9.8066 -4.61254e-10 -5.5073e-10 9.093e-10
0.588 -8.27413e-05 1.26321e-06 -6.84593e-06 -2.24485e-10 2.93555e-10 9.8066 -4.65143e-10 -5.7107e-10 1.01613e-09
0.589 -8.34235e-05 1.21555e-06 -9.02776e-06 -1.9142e-10 1.75146e-10 9.8066 -4.69041e-10 -5.91556e-10 1.12019e-09
0.59 -8.40526e-05 1.75505e-06 -9.16281e-06 -1.65063e-10 5.82038e-11 9.8066 -4.72946e-10 -6.12178e-10 1.22121e-09
0.591 -8.2737e-05 2.56511e-06 -7.19424e-06 -1.40494e-10 -5.74743e-11 9.8066 -4.76859e-10 -6.32927e-10 1.31897e-09
0.592 -8.28267e-05 4.14051e-06 -7.76489e-06 -5.92094e-11 -1.73486e-10 9.8066 -4.80779e-10 -6.53813e-10 1.41321e-09
0.593 -8.39336e-05 5.50827e-06 -5.469e-06 3.16221e-10 -2.91108e-10 9.8066 -4.84705e-10 -6.74885e-10 1.50373e-09
0.594 -8.42133e-05 5.16795e-06 -4.14457e-06 1.3044e-09 -4.03807e-10 9.8066 -4.88637e-10 -6.96212e-10 1.59028e-09
0.595 -8.38441e-05 3.38988e-06 -4.82987e-06 2.90875e-09 -4.98328e-10 9.8066 -4.92573e-10 -7.17831e-10 1.67269e-09
0.596 -8.27692e-05 4.56523e-06 -2.48213e-06 4.64837e-09 -5.69279e-10 9.8066 -4.96514e-10 -7.39694e-10 1.75073e-09
0.597 -8.24589e-05 3.82536e-06 -2.60985e-06 5.85812e-09 -6.27642e-10 9.8066 -5.0046e-10 -7.6167e-10 1.82426e-09
0.598 -8.10946e-05 4.01952e-06 -3.81063e-06 6.14754e-09 -6.95403e-10 9.8066 -5.04409e-10 -7.83608e-10 1.89309e-09
0.599 -8.19616e-05 3.35832e-06 -2.26221e-06 5.61922e-09 -7.8973e-10 9.8066 -5.08362e-10 -8.05411e-10 1.95708e-09
0.6 -8.1508e-05 3.63615e-06 -8.40967e-07 4.70163e-09 -9.11283e-10 9.8066 -5.12319e-10 -8.2705e-10 2.01609e-09
0.601 -8.32213e-05 3.73488e-06 9.02265e-07 3.78415e-09 -1.04586e-09 9.8066 -5.16279e-10 -8.48536e-10 2.06996e-09
0.602 -8.54311e-05 3.03253e-06 7.55844e-07 3.01886e-09 -1.17953e-09 9.8066 -5.20242e-10 -8.69891e-10 2.11854e-09
0.603 -8.64492e-05 1.57195e-06 5.16422e-07 2.40444e-09 -1.30755e-09 9.8066 -5.24207e-10 -8.91134e-10 2.1617e-09
0.604 -8.75286e-05 8.27347e-07 -1.36645e-06 1.91228e-09 -1.43054e-09 9.8066 -5.28175e-10 -9.12286e-10 2.19932e-09
0.605 -8.75373e-05 -1.38881e-06 -2.61436e-06 1.51805e-09 -1.54961e-09 9.8066 -5.32146e-10 -9.33363e-10 2.23127e-09
0.606 -8.88015e-05 2.81581e-07 -3.53762e-06 1.20252e-09 -1.66554e-09 9.8066 -5.36118e-10 -9.54383e-10 2.25744e-09
0.607 -8.69038e-05 6.29383e-07 -5.13123e-06 9.49898e-10 -1.77872e-09 9.8066 -5.40092e-10 -9.75358e-10 2.27771e-09
0.608 -8.9653e-05 2.00596e-06 -3.4465e-06 7.47578e-10 -1.8897e-09 9.8066 -5.44067e-10 -9.96302e-10 2.29199e-09
0.609 -9.01061e-05 3.03726e-07 -4.68927e-06 5.85813e-10 -1.99901e-09 9.8066 -5.48044e-10 -1.01722e-09 2.30019e-09
0.61 -9.01894e-05 3.28285e-06 -4.2176e-06 4.56502e-10 -2.10673e-09 9.8066 -5.52022e-10 -1.03813e-09 2.3022e-09
0.611 -9.1584e-05 5.6858e-06 -4.21233e-06 3.53003e-10 -2.21337e-09 9.8066 -5.56002e-10 -1.05903e-09 2.29794e-09
0.612 -9.19377e-05 6.6898e-06 -3.30396e-06 2.70431e-10 -2.31885e-09 9.8066 -5.59982e-10 -1.07993e-09 2.28734e-09
0.613 -9.09545e-05 6.99021e-06 -2.85475e-06 2.04474e-10 -2.42355e-09 9.8066 -5.63964e-10 -1.10083e-09 2.2703e-09
0.614 -8.89752e-05 6.83848e-06 -1.55321e-06 1.51925e-10 -2.35154e-09 9.8066 -5.67946e-10 -1.12174e-09 2.24734e-09
0.615 -8.97718e-05 6.61116e-06 -6.61194e-07 8.54364e-11 -2.23184e-09 9.8066 -5.71925e-10 -1.14257e-09 2.21908e-09
0.616 -9.002e-05 5.49431e-06 -3.37354e-06 1.72219e-11 -2.11664e-09 9.8066 -5.75895e-10 -1.16326e-09 2.18611e-09
0.617 -9.02344e-05 4.83666e-06 -3.77747e-06 -1.02768e-10 -2.00342e-09 9.8066 -5.79853e-10 -1.1837e-09 2.14896e-09
0.618 -8.9308e-05 5.20112e-06 -4.37427e-06 -3.81027e-10 -1.8863e-09 9.8066 -5.83795e-10 -1.20379e-09 2.10815e-09
0.619 -9.05834e-05 4.38527e-06 -3.45191e-06 -9.11669e-10 -1.76013e-09 9.8066 -5.87717e-10 -1.22344e-09 2.06415e-09
0.621 -8.97022e-05 3.15796e-06 -5.53655e-06 -2.37252e-09 -1.49676e-09 9.8066 -5.95485e-10 -1.26126e-09 1.96831e-09
0.622 -9.20298e-05 3.6117e-06 -5.93772e-06 -2.78994e-09 -1.38263e-09 9.8066 -5.99325e-10 -1.27938e-09 1.91728e-09
0.623 -9.27568e-05 3.95675e-06 -5.40768e-06 -2.77368e-09 -1.29092e-09 9.8066 -6.03131e-10 -1.29694e-09 1.8647e-09
0.624 -9.20607e-05 6.36174e-06 -6.07318e-06 -2.45273e-09 -1.21746e-09 9.8066 -6.06899e-10 -1.31388e-09 1.81089e-09
0.625 -9.18117e-05 5.49728e-06 -5.77315e-06 -2.06498e-09 -1.15195e-09 9.8066 -6.10627e-10 -1.33015e-09 1.75617e-09
0.628 -9.31631e-05 4.12229e-06 -5.6328e-06 -1.27553e-09 -9.55145e-10 9.8066 -6.21542e-10 -1.37433e-09 1.58942e-09
0.629 -9.34534e-05 4.08563e-06 -8.08595e-06 -1.1184e-09 -8.88667e-10 9.8066 -6.25082e-10 -1.38735e-09 1.53382e-09
0.63 -9.30731e-05 2.04506e-06 -8.95157e-06 -9.97398e-10 -8.22033e-10 9.8066 -6.28568e-10 -1.39946e-09 1.47861e-09
0.631 -9.28731e-05 1.26488e-06 -9.58523e-06 -9.05284e-10 -7.55488e-10 9.8066 -6.31998e-10 -1.41061e-09 1.424e-09
0.632 -9.37707e-05 -8.29104e-07 -1.07187e-05 -8.36267e-10 -6.89126e-10 9.8066 -6.3537e-10 -1.42075e-09 1.37019e-09
0.633 -9.25852e-05 -4.54624e-07 -1.24481e-05 -7.85693e-10 -6.23084e-10 9.8066 -6.38682e-10 -1.42986e-09 1.31735e-09
0.634 -9.12663e-05 -3.51287e-07 -1.28841e-05 -7.49902e-10 -5.5746e-10 9.8066 -6.41932e-10 -1.4379e-09 1.26568e-09
0.635 -9.33733e-05 7.89605e-07 -9.97234e-06 -7.25923e-10 -4.92166e-10 9.8066 -6.45118e-10 -1.44482e-09 1.21534e-09
0.636 -9.59846e-05 -3.81331e-10 -1.15771e-05 -7.11326e-10 -4.27416e-10 9.8066 -6.48237e-10 -1.45061e-09 1.16647e-09
0.637 -9.49962e-05 -1.81732e-06 -1.07075e-05 -7.04275e-10 -3.62984e-10 9.8066 -6.51288e-10 -1.45522e-09 1.11923e-09
0.638 -9.52211e-05 -1.76019e-06 -9.37997e-06 -7.02344e-10 -2.98926e-10 9.8066 -6.54269e-10 -1.45863e-09 1.07376e-09
0.639 -9.52841e-05 -1.21111e-06 -9.163e-06 -6.79484e-10 -2.36151e-10 9.8066 -6.57179e-10 -1.46082e-09 1.03019e-09
0.64 -9.25832e-05 -6.74213e-07 -9.85522e-06 -4.73684e-10 -1.76403e-10 9.8066 -6.60016e-10 -1.46181e-09 9.88632e-10
0.641 -9.19831e-05 -3.56811e-06 -9.93978e-06 2.42459e-10 -1.16787e-10 9.8066 -6.62778e-10 -1.46164e-09 9.49203e-10
0.642 -9.25868e-05 -2.01881e-06 -9.31799e-06 1.63125e-09 -4.49811e-11 9.8066 -6.65464e-10 -1.46036e-09 9.12006e-10
0.643 -9.26958e-05 -2.62126e-06 -9.67352e-06 3.37678e-09 4.9091e-11 9.8066 -6.68072e-10 -1.45793e-09 8.77131e-10
0.644 -9.34732e-05 -3.47983e-06 -9.73504e-06 4.82644e-09 1.60652e-10 9.8066 -6.70601e-10 -1.45423e-09 8.44696e-10
0.645 -9.38739e-05 -2.22964e-06 -1.08843e-05 5.44454e-09 2.70167e-10 9.8066 -6.7305e-10 -1.44909e-09 8.14781e-10
0.646 -8.98246e-05 -2.73599e-06 -1.03333e-05 5.15301e-09 3.57062e-10 9.8066 -6.75417e-10 -1.44238e-09 7.875e-10
0.647 -8.9651e-05 -1.8204e-06 -9.98287e-06 4.30023e-09 4.139e-10 9.8066 -6.77702e-10 -1.43403e-09 7.62953e-10
0.648 -8.94133e-05 -1.63532e-06 -1.10209e-05 3.32901e-09 4.50725e-10 9.8066 -6.79903e-10 -1.42401e-09 7.41192e-10
0.649 -8.65826e-05 -2.58699e-06 -1.20049e-05 2.48053e-09 4.83728e-10 9.8066 -6.82019e-10 -1.41234e-09 7.22312e-10
0.65 -8.74806e-05 -4.31046e-06 -1.23973e-05 1.79077e-09 5.20825e-10 9.8066 -6.84049e-10 -1.39903e-09 7.06363e-10
0.651 -8.90907e-05 -5.04594e-06 -1.19788e-05 1.23347e-09 5.62426e-10 9.8066 -6.85992e-10 -1.38407e-09 6.93423e-10
0.652 -8.95863e-05 -3.62514e-06 -1.34714e-05 7.82166e-10 6.07559e-10 9.8066 -6.87847e-10 -1.36748e-09 6.83546e-10
0.653 -9.02838e-05 -4.47385e-06 -1.26509e-05 4.15917e-10 6.55448e-10 9.8066 -6.89614e-10 -1.34925e-09 6.76788e-10
0.655 -8.63247e-05 -6.96845e-06 -1.6661e-05 -1.25665e-10 7.57227e-10 9.8066 -6.92876e-10 -1.3079e-09 6.72857e-10
0.656 -8.61515e-05 -6.65713e-06 -1.77144e-05 -2.83643e-10 7.17928e-10 9.8066 -6.94378e-10 -1.2849e-09 6.75485e-10
0.657 -8.76312e-05 -7.25312e-06 -1.63262e-05 -4.08096e-10 6.82517e-10 9.8066 -6.95803e-10 -1.26053e-09 6.80865e-10
0.658 -8.84039e-05 -8.16997e-06 -1.58689e-05 -5.05499e-10 6.5033e-10 9.8066 -6.97157e-10 -1.23489e-09 6.88783e-10
0.659 -8.89207e-05 -7.31649e-06 -1.61741e-05 -5.81576e-10 6.21147e-10 9.8066 -6.98444e-10 -1.20807e-09 6.99044e-10
0.66 -8.98294e-05 -7.44662e-06 -1.48956e-05 -6.40823e-10 5.94607e-10 9.8066 -6.99671e-10 -1.18019e-09 7.11465e-10
0.661 -8.80333e-05 -8.42565e-06 -1.29928e-05 -6.86493e-10 5.70418e-10 9.8066 -7.00841e-10 -1.15131e-09 7.25881e-10
0.662 -8.83672e-05 -7.48351e-06 -1.50927e-05 -7.21743e-10 5.48281e-10 9.8066 -7.0196e-10 -1.12152e-09 7.42137e-10
0.663 -8.83589e-05 -8.21871e-06 -1.47299e-05 -7.52904e-10 5.28003e-10 9.8066 -7.03031e-10 -1.09089e-09 7.6009e-10
0.664 -8.62267e-05 -9.51231e-06 -1.49932e-05 -8.11371e-10 5.10757e-10 9.8066 -7.04058e-10 -1.05946e-09 7.79605e-10
0.665 -8.57118e-05 -8.91676e-06 -1.57692e-05 -9.85304e-10 5.00683e-10 9.8066 -7.05044e-10 -1.02725e-09 8.00557e-10
0.666 -8.68927e-05 -1.00063e-05 -1.50838e-05 -1.38741e-09 5.03782e-10 9.8066 -7.05992e-10 -9.94299e-10 8.22827e-10
0.667 -8.59671e-05 -9.62035e-06 -1.61594e-05 -2.03692e-09 5.20834e-10 9.8066 -7.06905e-10 -9.60648e-10 8.46306e-10
0.668 -8.57721e-05 -6.50212e-06 -1.88118e-05 -2.7691e-09 5.43747e-10 9.8066 -7.07787e-10 -9.26376e-10 8.70902e-10
0.669 -8.62129e-05 -6.25992e-06 -1.91697e-05 -3.2957e-09 5.59642e-10 9.8066 -7.08639e-10 -8.91571e-10 8.96541e-10
0.67 -8.54592e-05 -4.74067e-06 -1.87694e-05 -3.40678e-09 5.58375e-10 9.8066 -7.09463e-10 -8.56301e-10 9.2314e-10
0.671 -8.38936e-05 -5.00008e-06 -1.81553e-05 -3.14081e-09 5.39848e-10 9.8066 -7.10263e-10 -8.20609e-10 9.50639e-10
0.672 -8.31205e-05 -5.63802e-06 -1.86747e-05 -2.72541e-09 5.13097e-10 9.8066 -7.11039e-10 -7.84524e-10 9.7896e-10
0.673 -8.32124e-05 -5.85222e-06 -1.71691e-05 -2.34209e-09 4.86887e-10 9.8066 -7.11793e-10 -7.48069e-10 1.00804e-09
0.674 -8.35923e-05 -8.95217e-06 -1.72893e-05 -2.03132e-09 4.64534e-10 9.8066 -7.12528e-10 -7.11271e-10 1.03782e-09
0.675 -8.4806e-05 -1.09174e-05 -1.97398e-05 -1.78211e-09 4.45666e-10 9.8066 -7.13244e-10 -6.74154e-10 1.06825e-09
0.676 -8.55644e-05 -1.19043e-05 -1.99983e-05 -1.58217e-09 4.29751e-10 9.8066 -7.13944e-10 -6.36744e-10 1.09927e-09
0.677 -8.3932e-05 -1.12138e-05 -2.04047e-05 -1.42174e-09 4.16414e-10 9.8066 -7.14627e-10 -5.99062e-10 1.13085e-09
0.678 -8.51965e-05 -1.13137e-05 -2.13335e-05 -1.29305e-09 4.05104e-10 9.8066 -7.15296e-10 -5.61132e-10 1.16292e-09
0.679 -8.39834e-05 -1.23319e-05 -1.99348e-05 -1.16587e-09 3.48617e-10 9.8066 -7.15948e-10 -5.2305e-10 1.19532e-09
0.68 -8.28565e-05 -1.20125e-05 -2.04074e-05 -1.05902e-09 2.93573e-10 9.8066 -7.16578e-10 -4.84908e-10 1.22785e-09
0.681 -8.27441e-05 -1.30071e-05 -2.11616e-05 -9.68328e-10 2.39692e-10 9.8066 -7.17185e-10 -4.46796e-10 1.26035e-09
0.682 -8.23571e-05 -1.38829e-05 -2.05278e-05 -8.90626e-10 1.86864e-10 9.8066 -7.17764e-10 -4.08797e-10 1.29264e-09
0.683 -8.21441e-05 -1.35728e-05 -2.0318e-05 -8.2337e-10 1.34722e-10 9.8066 -7.18313e-10 -3.70991e-10 1.32457e-09
0.684 -7.90734e-05 -1.37998e-05 -2.17124e-05 -7.64525e-10 8.3414e-11 9.8066 -7.18829e-10 -3.33454e-10 1.356e-09
0.685 -7.9819e-05 -1.49182e-05 -2.31551e-05 -7.12149e-10 3.26321e-11 9.8066 -7.1931e-10 -2.96259e-10 1.38677e-09
0.686 -8.03904e-05 -1.3914e-05 -2.28701e-05 -6.56219e-10 -1.79655e-11 9.8066 -7.19752e-10 -2.5948e-10 1.41676e-09
0.687 -8.34823e-05 -1.33546e-05 -2.13206e-05 -5.01549e-10 -7.01574e-11 9.8066 -7.20153e-10 -2.23213e-10 1.44583e-09
0.689 -8.27575e-05 -1.52016e-05 -2.26135e-05 1.23884e-09 -1.7024e-10 9.8066 -7.20821e-10 -1.52736e-10 1.50069e-09
0.69 -8.32901e-05 -1.5797e-05 -2.22464e-05 2.96833e-09 -1.96094e-10 9.8066 -7.21084e-10 -1.18744e-10 1.52624e-09
0.691 -8.42681e-05 -1.61827e-05 -2.00441e-05 4.65307e-09 -2.00111e-10 9.8066 -7.21295e-10 -8.55974e-11 1.55037e-09
0.692 -8.45804e-05 -1.66154e-05 -2.10425e-05 5.66039e-09 -1.97364e-10 9.8066 -7.21454e-10 -5.32103e-11 1.57302e-09
0.693 -8.29568e-05 -1.90512e-05 -1.90892e-05 5.7266e-09 -2.10281e-10 9.8066 -7.21558e-10 -2.14965e-11 1.59406e-09
0.694 -8.41858e-05 -1.94111e-05 -1.55654e-05 5.07213e-09 -2.52067e-10 9.8066 -7.21604e-10 9.57082e-12 1.61343e-09
0.695 -8.2919e-05 -2.03629e-05 -1.40638e-05 4.14988e-09 -3.18954e-10 9.8066 -7.21592e-10 3.99558e-11 1.63102e-09
0.696 -8.19487e-05 -2.14111e-05 -1.27201e-05 3.29217e-09 -3.94573e-10 9.8066 -7.21519e-10 6.95956e-11 1.64676e-09
0.697 -8.13982e-05 -1.97417e-05 -1.32156e-05 2.59401e-09 -4.6757e-10 9.8066 -7.21383e-10 9.84248e-11 1.66055e-09
0.698 -8.13271e-05 -2.11453e-05 -1.26096e-05 2.03915e-09 -5.35234e-10 9.8066 -7.21182e-10 1.2638e-10 1.67231e-09
0.699 -8.22553e-05 -2.18903e-05 -1.21142e-05 1.59927e-09 -5.98754e-10 9.8066 -7.20915e-10 1.53402e-10 1.68196e-09
0.7 -8.25298e-05 -2.21466e-05 -1.37308e-05 1.25155e-09 -6.58721e-10 9.8066 -7.2058e-10 1.79436e-10 1.68942e-09
0.701 -8.3369e-05 -1.95326e-05 -1.21006e-05 9.77816e-10 -7.15978e-10 9.8066 -7.20176e-10 2.04428e-10 1.69464e-09
0.702 -8.30739e-05 -1.8614e-05 -1.25188e-05 7.63276e-10 -7.71195e-10 9.8066 -7.197e-10 2.28332e-10 1.69753e-09
0.703 -8.44012e-05 -1.78809e-05 -1.26453e-05 5.96121e-10 -8.24594e-10 9.8066 -7.19151e-10 2.51101e-10 1.69803e-09
0.704 -8.50139e-05 -1.63996e-05 -1.19459e-05 4.67115e-10 -8.76666e-10 9.8066 -7.18528e-10 2.72695e-10 1.69608e-09
0.705 -8.7027e-05 -1.54834e-05 -1.14475e-05 3.6848e-10 -9.27713e-10 9.8066 -7.1783e-10 2.93076e-10 1.69163e-09
0.706 -8.55295e-05 -1.47864e-05 -1.20702e-05 2.94253e-10 -9.77765e-10 9.8066 -7.17054e-10 3.12207e-10 1.68461e-09
0.707 -8.39062e-05 -1.36239e-05 -1.3197e-05 2.39708e-10 -1.02718e-09 9.8066 -7.16201e-10 3.30055e-10 1.67498e-09
0.708 -8.11397e-05 -1.39588e-05 -1.26238e-05 2.00784e-10 -1.07599e-09 9.8066 -7.15267e-10 3.46589e-10 1.66268e-09
0.709 -8.09072e-05 -1.40045e-05 -1.21286e-05 1.74304e-10 -1.12442e-09 9.8066 -7.14253e-10 3.61781e-10 1.64767e-09
0.71 -7.75853e-05 -1.40416e-05 -1.31544e-05 1.56381e-10 -1.1726e-09 9.8066 -7.13158e-10 3.75606e-10 1.6299e-09
0.711 -7.54553e-05 -1.42984e-05 -1.47144e-05 1.28671e-10 -1.21999e-09 9.8066 -7.11979e-10 3.88051e-10 1.60932e-09
0.712 -7.43453e-05 -1.30214e-05 -1.45114e-05 2.54675e-11 -1.26361e-09 9.8066 -7.10716e-10 3.9912e-10 1.58589e-09
0.713 -7.39496e-05 -1.35914e-05 -1.40219e-05 -2.67534e-10 -1.29749e-09 9.8066 -7.09368e-10 4.08824e-10 1.55957e-09
0.714 -7.3801e-05 -1.36049e-05 -1.22399e-05 -8.19241e-10 -1.31801e-09 9.8066 -7.07934e-10 4.17157e-10 1.5303e-09
0.715 -7.50223e-05 -1.48054e-05 -1.17982e-05 -1.53487e-09 -1.33003e-09 9.8066 -7.06412e-10 4.2408e-10 1.49806e-09
0.716 -7.42391e-05 -1.39254e-05 -1.00319e-05 -2.15328e-09 -1.34542e-09 9.8066 -7.04803e-10 4.29529e-10 1.46281e-09
0.717 -7.36119e-05 -1.45107e-05 -1.02284e-05 -2.40912e-09 -1.37636e-09 9.8066 -7.03105e-10 4.33448e-10 1.42453e-09
0.718 -7.24684e-05 -1.2489e-05 -1.26287e-05 -2.24225e-09 -1.42684e-09 9.8066 -7.01318e-10 4.35806e-10 1.3832e-09
0.719 -7.04887e-05 -1.14057e-05 -1.35659e-05 -1.85275e-09 -1.36069e-09 9.8066 -6.99451e-10 4.36649e-10 1.3392e-09
0.72 -7.10657e-05 -1.17115e-05 -1.42849e-05 -1.44464e-09 -1.30001e-09 9.8066 -6.97517e-10 4.36018e-10 1.29289e-09
0.721 -7.00571e-05 -1.19943e-05 -1.5911e-05 -1.10433e-09 -1.23939e-09 9.8066 -6.95526e-10 4.33949e-10 1.24462e-09
0.722 -7.16571e-05 -1.23884e-05 -1.5798e-05 -8.29013e-10 -1.17802e-09 9.8066 -6.93485e-10 4.3047e-10 1.1947e-09
0.723 -7.04284e-05 -1.35995e-05 -1.49917e-05 -6.05822e-10 -1.11624e-09 9.8066 -6.91405e-10 4.25603e-10 1.14342e-09
0.724 -6.94185e-05 -1.57612e-05 -1.46215e-05 -4.24196e-10 -1.05435e-09 9.8066 -6.89294e-10 4.19365e-10 1.09108e-09
0.725 -6.83405e-05 -1.73474e-05 -1.25076e-05 -2.75826e-10 -9.92613e-10 9.8066 -6.87158e-10 4.11769e-10 1.03793e-09
0.727 -6.70804e-05 -1.91048e-05 -1.308e-05 -5.27202e-11 -8.69765e-10 9.8066 -6.82845e-10 3.9254e-10 9.30173e-10
0.728 -6.52117e-05 -1.88314e-05 -1.12855e-05 3.16101e-11 -8.08974e-10 9.8066 -6.8068e-10 3.80918e-10 8.76024e-10
0.729 -6.62606e-05 -1.88529e-05 -1.0565e-05 1.02686e-10 -7.48593e-10 9.8066 -6.78518e-10 3.67962e-10 8.21972e-10
0.73 -6.84758e-05 -2.05265e-05 -1.22957e-05 1.63168e-10 -6.88762e-10 9.8066 -6.76364e-10 3.53673e-10 7.68212e-10
0.731 -6.93479e-05 -2.15694e-05 -1.33886e-05 2.15302e-10 -6.29356e-10 9.8066 -6.74225e-10 3.38048e-10 7.14926e-10
0.732 -6.99003e-05 -2.24553e-05 -1.09022e-05 2.60965e-10 -5.70556e-10 9.8066 -6.72104e-10 3.21085e-10 6.62287e-10
0.733 -6.84335e-05 -2.22134e-05 -1.05148e-05 3.0403e-10 -5.12141e-10 9.8066 -6.70007e-10 3.02777e-10 6.10459e-10
0.734 -6.71388e-05 -2.20266e-05 -1.03044e-05 3.92017e-10 -4.55645e-10 9.8066 -6.67938e-10 2.83102e-10 5.59596e-10
0.735 -6.73081e-05 -1.99963e-05 -1.09244e-05 7.42465e-10 -4.02244e-10 9.8066 -6.65902e-10 2.62e-10 5.0984e-10
0.736 -6.67064e-05 -2.05436e-05 -1.08308e-05 1.68203e-09 -3.46463e-10 9.8066 -6.63901e-10 2.39385e-10 4.6132e-10
0.737 -6.61439e-05 -2.15462e-05 -1.27416e-05 3.26024e-09 -2.74967e-10 9.8066 -6.61941e-10 2.15196e-10 4.14163e-10
0.738 -6.80851e-05 -2.3749e-05 -1.55852e-05 5.03716e-09 -1.80723e-10 9.8066 -6.60024e-10 1.89458e-10 3.68478e-10
0.739 -6.88584e-05 -2.24417e-05 -1.40404e-05 6.32093e-09 -2.14438e-11 9.8066 -6.5815e-10 1.62355e-10 3.24575e-10
0.74 -6.88741e-05 -2.32857e-05 -1.51468e-05 6.70158e-09 1.29833e-10 9.8066 -6.56317e-10 1.34096e-10 2.82712e-10
0.741 -6.97077e-05 -2.54598e-05 -1.34621e-05 6.23479e-09 2.54862e-10 9.8066 -6.54525e-10 1.04839e-10 2.43173e-10
0.742 -6.99118e-05 -2.47451e-05 -1.31564e-05 5.33245e-09 3.51243e-10 9.8066 -6.52772e-10 7.46709e-11 2.06221e-10
0.743 -6.81351e-05 -2.58539e-05 -1.16821e-05 4.40199e-09 4.32156e-10 9.8066 -6.51059e-10 4.36303e-11 1.72068e-10
0.744 -6.64428e-05 -2.39826e-05 -1.30265e-05 3.61837e-09 5.12613e-10 9.8066 -6.49382e-10 1.17434e-11 1.40958e-10
0.745 -6.54211e-05 -2.30113e-05 -1.43339e-05 2.98826e-09 5.97901e-10 9.8066 -6.47743e-10 -2.09671e-11 1.13098e-10
0.746 -6.31997e-05 -2.25279e-05 -1.44706e-05 2.48332e-09 6.87406e-10 9.8066 -6.46138e-10 -5.44791e-11 8.86865e-11
0.747 -6.29075e-05 -2.4543e-05 -1.59353e-05 2.07861e-09 7.8045e-10 9.8066 -6.44569e-10 -8.8771e-11 6.79315e-11
0.748 -6.03388e-05 -2.38749e-05 -1.5466e-05 1.75421e-09 8.76191e-10 9.8066 -6.43032e-10 -1.23821e-10 5.1012e-11
0.749 -5.82083e-05 -2.41922e-05 -1.45829e-05 1.49439e-09 9.73906e-10 9.8066 -6.41528e-10 -1.59609e-10 3.81124e-11
0.75 -5.94565e-05 -2.46659e-05 -1.27659e-05 1.2861e-09 1.07309e-09 9.8066 -6.40055e-10 -1.96111e-10 2.9406e-11
0.751 -6.10185e-05 -2.65704e-05 -1.36314e-05 1.11927e-09 1.17347e-09 9.8066 -6.38613e-10 -2.33306e-10 2.50526e-11
0.752 -6.036e-05 -2.59625e-05 -1.33222e-05 9.85717e-10 1.27486e-09 9.8066 -6.372e-10 -2.71172e-10 2.52121e-11
0.753 -6.02739e-05 -2.62222e-05 -1.3946e-05 8.78829e-10 1.37676e-09 9.8066 -6.35816e-10 -3.09687e-10 3.00326e-11
0.754 -6.10089e-05 -2.7186e-05 -1.50896e-05 7.9322e-10 1.47914e-09 9.8066 -6.34459e-10 -3.48828e-10 3.96557e-11
0.755 -6.0777e-05 -2.66127e-05 -1.50538e-05 7.24679e-10 1.58184e-09 9.8066 -6.33129e-10 -3.88573e-10 5.42183e-11
0.756 -6.22951e-05 -2.75292e-05 -1.55057e-05 6.69859e-10 1.68472e-09 9.8066 -6.31825e-10 -4.28901e-10 7.38506e-11
0.757 -6.29576e-05 -2.91318e-05 -1.72176e-05 6.25519e-10 1.78776e-09 9.8066 -6.30545e-10 -4.69788e-10 9.8675e-11
0.758 -6.30188e-05 -2.9772e-05 -1.755e-05 5.16844e-10 1.75662e-09 9.8066 -6.29287e-10 -5.10996e-10 1.28376e-10
0.759 -6.48606e-05 -2.92997e-05 -1.67503e-05 3.65326e-10 1.72999e-09 9.8066 -6.28046e-10 -5.52284e-10 1.62653e-10
0.76 -6.17677e-05 -2.95277e-05 -1.69533e-05 6.86223e-11 1.71311e-09 9.8066 -6.26818e-10 -5.93412e-10 2.01227e-10
0.761 -6.2775e-05 -3.05361e-05 -1.8882e-05 -4.74549e-10 1.71099e-09 9.8066 -6.25602e-10 -6.34159e-10 2.43831e-10
0.762 -6.27266e-05 -3.0905e-05 -1.96984e-05 -1.23831e-09 1.72211e-09 9.8066 -6.24393e-10 -6.7435e-10 2.90222e-10
0.763 -6.27936e-05 -2.90196e-05 -2.09423e-05 -2.01168e-09 1.73678e-09 9.8066 -6.2319e-10 -7.13848e-10 3.40185e-10
0.764 -6.08942e-05 -2.82081e-05 -1.99243e-05 -2.50464e-09 1.7415e-09 9.8066 -6.2199e-10 -7.5253e-10 3.93508e-10
0.765 -6.03802e-05 -2.79784e-05 -1.96707e-05 -2.56416e-09 1.72853e-09 9.8066 -6.20792e-10 -7.90266e-10 4.50008e-10
0.766 -6.13854e-05 -3.05971e-05 -2.09387e-05 -2.29667e-09 1.70086e-09 9.8066 -6.19593e-10 -8.26909e-10 5.09509e-10
0.767 -6.15615e-05 -3.0135e-05 -2.23041e-05 -1.94081e-09 1.66806e-09 9.8066 -6.18393e-10 -8.62314e-10 5.7183e-10
0.768 -6.0554e-05 -3.03065e-05 -2.29826e-05 -1.63813e-09 1.63798e-09 9.8066 -6.17189e-10 -8.96344e-10 6.36815e-10
0.769 -6.03281e-05 -2.98217e-05 -2.4729e-05 -1.40566e-09 1.61216e-09 9.8066 -6.15981e-10 -9.2887e-10 7.04307e-10
0.77 -5.84416e-05 -3.15469e-05 -2.72137e-05 -1.23019e-09 1.59018e-09 9.8066 -6.14767e-10 -9.59775e-10 7.74169e-10
0.771 -5.81499e-05 -3.34743e-05 -2.66904e-05 -1.10053e-09 1.57141e-09 9.8066 -6.13547e-10 -9.88947e-10 8.46267e-10
0.772 -5.8929e-05 -3.39815e-05 -2.6822e-05 -1.00727e-09 1.55561e-09 9.8066 -6.1232e-10 -1.01628e-09 9.20481e-10
0.773 -5.80297e-05 -3.38712e-05 -2.81862e-05 -9.43031e-10 1.54215e-09 9.8066 -6.11085e-10 -1.04168e-09 9.96693e-10
0.774 -5.82016e-05 -3.30513e-05 -2.81123e-05 -9.02143e-10 1.53081e-09 9.8066 -6.09842e-10 -1.06504e-09 1.0748e-09
0.775 -5.85679e-05 -3.2832e-05 -2.93259e-05 -8.79671e-10 1.52132e-09 9.8066 -6.0859e-10 -1.08629e-09 1.1547e-09
0.777 -5.68831e-05 -3.15127e-05 -2.96855e-05 -8.75992e-10 1.50681e-09 9.8066 -6.06058e-10 -1.12209e-09 1.31951e-09
0.778 -5.72959e-05 -2.95191e-05 -2.83168e-05 -8.89272e-10 1.50133e-09 9.8066 -6.04777e-10 -1.1365e-09 1.40425e-09
0.779 -5.7338e-05 -2.90841e-05 -2.80473e-05 -9.09978e-10 1.49703e-09 9.8066 -6.03486e-10 -1.14847e-09 1.49044e-09
0.78 -5.69584e-05 -2.87543e-05 -2.85852e-05 -9.3596e-10 1.49348e-09 9.8066 -6.02185e-10 -1.15796e-09 1.57801e-09
0.781 -5.64891e-05 -2.82097e-05 -2.70045e-05 -8.81176e-10 1.35105e-09 9.8066 -6.00877e-10 -1.1651e-09 1.66644e-09
0.782 -5.65805e-05 -2.76073e-05 -2.78219e-05 -6.70055e-10 1.20936e-09 9.8066 -5.99565e-10 -1.17009e-09 1.75525e-09
0.783 -5.41728e-05 -2.90366e-05 -2.80847e-05 1.8145e-11 1.07025e-09 9.8066 -5.98251e-10 -1.17312e-09 1.84396e-09
0.784 -5.61776e-05 -2.76267e-05 -2.76029e-05 1.38132e-09 9.44912e-10 9.8066 -5.96939e-10 -1.1744e-09 1.93215e-09
0.785 -5.37328e-05 -3.03929e-05 -2.82225e-05 3.15238e-09 8.44229e-10 9.8066 -5.95629e-10 -1.17402e-09 2.01939e-09
0.786 -5.27617e-05 -3.2166e-05 -2.9356e-05 4.69387e-09 7.64913e-10 9.8066 -5.94324e-10 -1.17201e-09 2.1053e-09
0.792 -4.94042e-05 -3.14333e-05 -3.34525e-05 2.01813e-09 3.79926e-11 9.8066 -5.86674e-10 -1.12557e-09 2.57476e-09
0.793 -4.88163e-05 -2.83007e-05 -3.43433e-05 1.4784e-09 -9.6905e-11 9.8066 -5.85439e-10 -1.11275e-09 2.64259e-09
0.794 -4.82018e-05 -2.74614e-05 -3.26046e-05 1.04663e-09 -2.26772e-10 9.8066 -5.84217e-10 -1.0987e-09 2.70674e-09
0.795 -5.19492e-05 -2.59911e-05 -3.3435e-05 7.01423e-10 -3.52309e-10 9.8066 -5.83008e-10 -1.08353e-09 2.767e-09
0.796 -5.10683e-05 -2.69191e-05 -3.28591e-05 4.25569e-10 -4.74318e-10 9.8066 -5.81814e-10 -1.06729e-09 2.82314e-09
0.797 -4.97344e-05 -2.75942e-05 -3.08531e-05 2.05208e-10 -5.93242e-10 9.8066 -5.80633e-10 -1.05005e-09 2.87496e-09
0.798 -4.79593e-05 -2.6448e-05 -2.9798e-05 2.92405e-11 -7.09682e-10 9.8066 -5.79467e-10 -1.03188e-09 2.92229e-09
0.799 -4.74741e-05 -2.84626e-05 -3.05619e-05 -1.11176e-10 -8.24051e-10 9.8066 -5.78316e-10 -1.01283e-09 2.96492e-09
0.8 -4.7325e-05 -2.68922e-05 -2.91368e-05 -2.2322e-10 -9.36417e-10 9.8066 -5.77179e-10 -9.92953e-10 3.00271e-09
0.801 -4.59341e-05 -2.68459e-05 -3.01046e-05 -3.12527e-10 -1.04739e-09 9.8066 -5.76056e-10 -9.72301e-10 3.03548e-09
0.802 -4.40489e-05 -2.67657e-05 -3.04521e-05 -3.83563e-10 -1.15685e-09 9.8066 -5.74949e-10 -9.50917e-10 3.06308e-09
0.803 -4.41356e-05 -2.48759e-05 -3.0647e-05 -4.40098e-10 -1.26514e-09 9.8066 -5.73855e-10 -9.28841e-10 3.08538e-09
0.804 -4.44813e-05 -2.51103e-05 -3.25844e-05 -4.42607e-10 -1.27877e-09 9.8066 -5.72768e-10 -9.06248e-10 3.10255e-09
0.805 -4.52814e-05 -2.65407e-05 -3.16577e-05 -4.40539e-10 -1.29456e-09 9.8066 -5.7168e-10 -8.83296e-10 3.11473e-09
0.806 -4.4346e-05 -2.36559e-05 -3.12313e-05 -4.61027e-10 -1.31141e-09 9.8066 -5.70584e-10 -8.6012e-10 3.12206e-09
0.807 -4.3865e-05 -2.47021e-05 -3.08217e-05 -5.86542e-10 -1.32512e-09 9.8066 -5.69474e-10 -8.36828e-10 3.12467e-09
0.808 -4.42994e-05 -2.41052e-05 -2.98931e-05 -9.31422e-10 -1.32949e-09 9.8066 -5.68343e-10 -8.13517e-10 3.12268e-09
0.809 -4.30626e-05 -2.63082e-05 -2.90613e-05 -1.52993e-09 -1.32263e-09 9.8066 -5.67186e-10 -7.90303e-10 3.11616e-09
0.81 -4.35825e-05 -2.79772e-05 -2.93876e-05 -2.23577e-09 -1.31149e-09 9.8066 -5.65997e-10 -7.67326e-10 3.10524e-09
0.811 -4.30684e-05 -2.74963e-05 -3.08073e-05 -2.76515e-09 -1.30891e-09 9.8066 -5.64773e-10 -7.44735e-10 3.09e-09
0.812 -4.31589e-05 -2.66767e-05 -2.96307e-05 -2.89041e-09 -1.3255e-09 9.8066 -5.63507e-10 -7.22659e-10 3.07052e-09
0.813 -4.12865e-05 -2.87659e-05 -3.07389e-05 -2.62357e-09 -1.36203e-09 9.8066 -5.62196e-10 -7.01197e-10 3.04689e-09
0.814 -4.26973e-05 -2.90581e-05 -3.06014e-05 -2.1836e-09 -1.4101e-09 9.8066 -5.60836e-10 -6.80428e-10 3.01916e-09
0.815 -4.15928e-05 -2.93304e-05 -3.02948e-05 -1.76501e-09 -1.46018e-09 9.8066 -5.59423e-10 -6.60424e-10 2.98739e-09
0.816 -4.12788e-05 -2.80631e-05 -3.08024e-05 -1.41911e-09 -1.5088e-09 9.8066 -5.57953e-10 -6.41255e-10 2.95164e-09
0.817 -4.22809e-05 -2.79119e-05 -3.01102e-05 -1.13628e-09 -1.55552e-09 9.8066 -5.56424e-10 -6.22987e-10 2.91193e-09
0.818 -3.98297e-05 -2.94361e-05 -3.06201e-05 -9.04255e-10 -1.6011e-09 9.8066 -5.54833e-10 -6.05684e-10 2.86832e-09
0.819 -4.15852e-05 -2.88281e-05 -2.94198e-05 -7.12806e-10 -1.64569e-09 9.8066 -5.53175e-10 -5.89406e-10 2.82083e-09
0.82 -4.26051e-05 -3.08684e-05 -2.98171e-05 -5.53864e-10 -1.68971e-09 9.8066 -5.5145e-10 -5.74208e-10 2.7695e-09
0.821 -4.068e-05 -3.24316e-05 -2.87513e-05 -4.20996e-10 -1.73325e-09 9.8066 -5.49653e-10 -5.60144e-10 2.71435e-09
0.822 -3.96897e-05 -3.12016e-05 -2.83053e-05 -3.09091e-10 -1.77661e-09 9.8066 -5.47784e-10 -5.47263e-10 2.6554e-09
0.823 -3.86591e-05 -2.89928e-05 -2.81899e-05 -2.13973e-10 -1.81995e-09 9.8066 -5.4584e-10 -5.35609e-10 2.59268e-09
0.824 -3.90511e-05 -2.47653e-05 -2.822e-05 -1.74643e-10 -1.7793e-09 9.8066 -5.43826e-10 -5.25091e-10 2.52647e-09
0.825 -4.06078e-05 -2.37197e-05 -2.9481e-05 -1.44666e-10 -1.74152e-09 9.8066 -5.41748e-10 -5.1562e-10 2.45704e-09
0.826 -3.99767e-05 -2.16783e-05 -2.8579e-05 -1.22264e-10 -1.7062e-09 9.8066 -5.39611e-10 -5.07116e-10 2.38463e-09
0.827 -3.90418e-05 -2.20794e-05 -2.82424e-05 -1.05552e-10 -1.67326e-09 9.8066 -5.37419e-10 -4.99507e-10 2.30947e-09
0.828 -3.8761e-05 -2.15646e-05 -2.8999e-05 -8.68896e-11 -1.64286e-09 9.8066 -5.35177e-10 -4.92726e-10 2.23177e-09
0.829 -4.04443e-05 -2.14756e-05 -2.6657e-05 1.39315e-11 -1.61631e-09 9.8066 -5.32889e-10 -4.86738e-10 2.15172e-09
0.83 -3.83914e-05 -2.22137e-05 -2.78065e-05 4.66865e-10 -1.59394e-09 9.8066 -5.30558e-10 -4.81546e-10 2.06949e-09
0.831 -3.62138e-05 -2.40084e-05 -2.82755e-05 1.56638e-09 -1.56731e-09 9.8066 -5.28187e-10 -4.77174e-10 1.98524e-09
0.832 -3.62787e-05 -2.18632e-05 -2.6925e-05 3.23194e-09 -1.52302e-09 9.8066 -5.2578e-10 -4.73606e-10 1.89912e-09
0.833 -3.69158e-05 -2.26849e-05 -2.7416e-05 4.92079e-09 -1.45819e-09 9.8066 -5.23338e-10 -4.70736e-10 1.81125e-09
0.834 -3.65686e-05 -2.23878e-05 -2.77805e-05 5.98413e-09 -1.38625e-09 9.8066 -5.20866e-10 -4.68389e-10 1.72179e-09
0.835 -3.3591e-05 -2.09888e-05 -2.99554e-05 6.11009e-09 -1.329e-09 9.8066 -5.18365e-10 -4.66388e-10 1.63087e-09
0.836 -3.40253e-05 -2.34279e-05 -3.13833e-05 5.47766e-09 -1.30169e-09 9.8066 -5.15838e-10 -4.64614e-10 1.5386e-09
0.837 -3.48484e-05 -2.50768e-05 -3.21048e-05 4.53401e-09 -1.30154e-09 9.8066 -5.13286e-10 -4.63021e-10 1.44509e-09
0.838 -3.35286e-05 -2.45332e-05 -3.33286e-05 3.63366e-09 -1.31322e-09 9.8066 -5.10712e-10 -4.61596e-10 1.35043e-09
0.839 -3.22017e-05 -2.70581e-05 -3.28738e-05 2.89168e-09 -1.32385e-09 9.8066 -5.08118e-10 -4.60336e-10 1.25472e-09
0.84 -3.27519e-05 -2.79659e-05 -3.21445e-05 2.29615e-09 -1.3303e-09 9.8066 -5.05505e-10 -4.59238e-10 1.15802e-09
0.841 -3.13554e-05 -2.83742e-05 -3.2442e-05 1.81851e-09 -1.33326e-09 9.8066 -5.02874e-10 -4.58302e-10 1.06043e-09
0.842 -3.16046e-05 -2.70607e-05 -3.2626e-05 1.4355e-09 -1.33371e-09 9.8066 -5.00227e-10 -4.57524e-10 9.61996e-10
0.843 -3.15737e-05 -2.68159e-05 -3.25662e-05 1.12813e-09 -1.23294e-09 9.8066 -4.97566e-10 -4.56903e-10 8.63121e-10
0.844 -2.95198e-05 -2.73754e-05 -3.1582e-05 8.81675e-10 -1.13063e-09 9.8066 -4.9489e-10 -4.56435e-10 7.64165e-10
0.845 -2.91778e-05 -2.80325e-05 -3.22799e-05 6.83954e-10 -1.02714e-09 9.8066 -4.92203e-10 -4.56115e-10 6.65486e-10
0.846 -2.9551e-05 -2.63123e-05 -3.16536e-05 5.25204e-10 -9.22769e-10 9.8066 -4.89503e-10 -4.5594e-10 5.67417e-10
0.847 -3.06246e-05 -2.63478e-05 -3.27218e-05 3.97913e-10 -8.1783e-10 9.8066 -4.86792e-10 -4.55903e-10 4.7028e-10
0.848 -3.10851e-05 -2.47812e-05 -3.1476e-05 2.95687e-10 -7.12589e-10 9.8066 -4.84072e-10 -4.55999e-10 3.74382e-10
0.849 -3.00536e-05 -2.33138e-05 -3.19303e-05 2.13642e-10 -6.07222e-10 9.8066 -4.81343e-10 -4.56222e-10 2.80018e-10
0.85 -3.00945e-05 -2.29732e-05 -3.12289e-05 1.47699e-10 -5.01809e-10 9.8066 -4.78605e-10 -4.56565e-10 1.87467e-10
0.851 -2.92371e-05 -2.29778e-05 -3.25122e-05 9.47263e-11 -3.96464e-10 9.8066 -4.75859e-10 -4.57021e-10 9.69944e-11
0.852 -3.17917e-05 -2.1893e-05 -3.25586e-05 5.09623e-11 -2.91337e-10 9.8066 -4.73106e-10 -4.57583e-10 8.85707e-12
0.853 -3.0291e-05 -2.10073e-05 -3.03008e-05 9.21611e-13 -1.86211e-10 9.8066 -4.70347e-10 -4.58232e-10 -7.67043e-11
0.854 -3.00709e-05 -2.30526e-05 -3.01362e-05 -1.15327e-10 -7.81387e-11 9.8066 -4.67582e-10 -4.58936e-10 -1.59461e-10
0.855 -3.01661e-05 -2.35015e-05 -3.11321e-05 -4.09856e-10 3.86546e-11 9.8066 -4.64811e-10 -4.59652e-10 -2.39198e-10
0.856 -2.87024e-05 -2.38679e-05 -3.00104e-05 -9.62036e-10 1.68231e-10 9.8066 -4.62035e-10 -4.60357e-10 -3.15711e-10
0.857 -2.78842e-05 -2.5321e-05 -2.93646e-05 -1.69603e-09 3.07034e-10 9.8066 -4.59254e-10 -4.61062e-10 -3.888e-10
0.858 -2.54954e-05 -2.49151e-05 -2.88623e-05 -2.36239e-09 4.43382e-10 9.8066 -4.56469e-10 -4.61803e-10 -4.58262e-10
0.859 -2.47363e-05 -2.49726e-05 -3.09332e-05 -2.68603e-09 5.64935e-10 9.8066 -4.5368e-10 -4.62613e-10 -5.23914e-10
0.86 -2.47239e-05 -2.47462e-05 -3.06865e-05 -2.58043e-09 6.66626e-10 9.8066 -4.50888e-10 -4.63503e-10 -5.85569e-10
0.861 -2.19122e-05 -2.38492e-05 -3.15308e-05 -2.20996e-09 7.5413e-10 9.8066 -4.48092e-10 -4.64468e-10 -6.43054e-10
0.862 -2.30213e-05 -2.49798e-05 -3.3231e-05 -1.80508e-09 8.37632e-10 9.8066 -4.45293e-10 -4.65494e-10 -6.9622e-10
0.863 -2.31894e-05 -2.21116e-05 -3.31668e-05 -1.46655e-09 9.2326e-10 9.8066 -4.42492e-10 -4.66573e-10 -7.44909e-10
0.865 -2.69559e-05 -2.29076e-05 -3.37169e-05 -9.78533e-10 1.10246e-09 9.8066 -4.36881e-10 -4.68865e-10 -8.28295e-10
0.866 -2.51536e-05 -2.25196e-05 -3.42856e-05 -8.05154e-10 1.19544e-09 9.8066 -4.34072e-10 -4.7007e-10 -8.62719e-10
0.867 -2.3387e-05 -2.2617e-05 -3.53717e-05 -6.66565e-10 1.29008e-09 9.8066 -4.31262e-10 -4.7131e-10 -8.92121e-10
0.868 -2.46347e-05 -2.21467e-05 -3.60727e-05 -5.55751e-10 1.38623e-09 9.8066 -4.28449e-10 -4.72582e-10 -9.16379e-10
0.869 -2.47895e-05 -2.12883e-05 -3.48672e-05 -4.67158e-10 1.48362e-09 9.8066 -4.25635e-10 -4.73885e-10 -9.35373e-10
0.87 -2.38555e-05 -2.23432e-05 -3.47413e-05 -3.96395e-10 1.58207e-09 9.8066 -4.22819e-10 -4.75217e-10 -9.4899e-10
0.871 -2.44e-05 -2.12571e-05 -3.50397e-05 -3.39805e-10 1.68148e-09 9.8066 -4.20003e-10 -4.76576e-10 -9.57116e-10
0.872 -2.31794e-05 -2.00403e-05 -3.52401e-05 -2.94544e-10 1.78165e-09 9.8066 -4.17184e-10 -4.77959e-10 -9.59647e-10
0.873 -2.19627e-05 -1.91567e-05 -3.6365e-05 -2.58348e-10 1.88244e-09 9.8066 -4.14365e-10 -4.79366e-10 -9.56478e-10
0.874 -2.01111e-05 -1.97073e-05 -3.46955e-05 -2.29332e-10 1.98394e-09 9.8066 -4.11545e-10 -4.80794e-10 -9.47511e-10
0.875 -1.95194e-05 -2.0015e-05 -3.00005e-05 -2.04393e-10 2.08589e-09 9.8066 -4.08724e-10 -4.82244e-10 -9.32649e-10
0.876 -1.84397e-05 -1.97109e-05 -3.0844e-05 -1.45022e-10 2.18726e-09 9.8066 -4.05902e-10 -4.83729e-10 -9.118e-10
0.877 -2.02041e-05 -2.0013e-05 -3.0548e-05 1.45848e-10 2.28624e-09 9.8066 -4.03079e-10 -4.85297e-10 -8.84878e-10
0.878 -1.85797e-05 -1.95476e-05 -3.1795e-05 9.98438e-10 2.21751e-09 9.8066 -4.00255e-10 -4.87026e-10 -8.52351e-10
0.879 -1.94138e-05 -1.87219e-05 -3.33167e-05 2.50667e-09 2.1687e-09 9.8066 -3.97431e-10 -4.8897e-10 -8.14662e-10
0.88 -1.89753e-05 -1.87831e-05 -3.50564e-05 4.27392e-09 2.14763e-09 9.8066 -3.94605e-10 -4.91106e-10 -7.72208e-10
0.881 -1.82881e-05 -1.71269e-05 -3.42643e-05 5.63386e-09 2.14638e-09 9.8066 -3.91779e-10 -4.93321e-10 -7.25336e-10
0.883 -1.88281e-05 -1.89048e-05 -2.99966e-05 5.71714e-09 2.11958e-09 9.8066 -3.86126e-10 -4.97442e-10 -6.19658e-10
0.884 -1.80503e-05 -1.90787e-05 -2.90193e-05 4.83958e-09 2.06967e-09 9.8066 -3.833e-10 -4.99202e-10 -5.6144e-10
0.885 -1.60452e-05 -1.91366e-05 -2.82206e-05 3.90256e-09 2.00622e-09 9.8066 -3.80473e-10 -5.00762e-10 -4.99982e-10
0.886 -1.71222e-05 -1.98938e-05 -2.80509e-05 3.10491e-09 1.94384e-09 9.8066 -3.77646e-10 -5.02145e-10 -4.35553e-10
0.887 -1.69764e-05 -1.94935e-05 -2.81415e-05 2.46315e-09 1.88905e-09 9.8066 -3.74819e-10 -5.03374e-10 -3.68375e-10
0.888 -1.61943e-05 -1.99078e-05 -2.79611e-05 1.94874e-09 1.84133e-09 9.8066 -3.71992e-10 -5.04472e-10 -2.98654e-10
0.889 -1.72341e-05 -1.9787e-05 -3.03813e-05 1.53671e-09 1.79961e-09 9.8066 -3.69164e-10 -5.0546e-10 -2.26593e-10
0.89 -1.81639e-05 -2.12352e-05 -2.94082e-05 1.20667e-09 1.76284e-09 9.8066 -3.66337e-10 -5.06357e-10 -1.52379e-10
0.891 -1.89444e-05 -2.04523e-05 -2.97389e-05 9.42359e-10 1.73027e-09 9.8066 -3.6351e-10 -5.07179e-10 -7.61715e-11
0.892 -1.99079e-05 -2.15963e-05 -2.9755e-05 7.30636e-10 1.70133e-09 9.8066 -3.60683e-10 -5.0794e-10 1.86764e-12
0.893 -2.04152e-05 -2.3352e-05 -2.93833e-05 5.6111e-10 1.67553e-09 9.8066 -3.57856e-10 -5.08651e-10 8.15973e-11
0.894 -2.15695e-05 -2.18897e-05 -3.30242e-05 4.25368e-10 1.65241e-09 9.8066 -3.55029e-10 -5.09324e-10 1.62886e-10
0.895 -1.84128e-05 -2.43689e-05 -3.47016e-05 3.16638e-10 1.63155e-09 9.8066 -3.52202e-10 -5.09967e-10 2.4561e-10
0.896 -1.88926e-05 -2.44854e-05 -3.3112e-05 2.29699e-10 1.6128e-09 9.8066 -3.49376e-10 -5.10586e-10 3.29654e-10
0.897 -2.01426e-05 -2.43908e-05 -3.38423e-05 1.60074e-10 1.59601e-09 9.8066 -3.46549e-10 -5.11187e-10 4.14915e-10
0.898 -2.05618e-05 -2.41838e-05 -3.06467e-05 1.04355e-10 1.5807e-09 9.8066 -3.43723e-10 -5.11776e-10 5.01295e-10
0.899 -2.17917e-05 -2.60199e-05 -3.05917e-05 5.94713e-11 1.56704e-09 9.8066 -3.40897e-10 -5.12353e-10 5.88706e-10
0.9 -2.29313e-05 -2.42587e-05 -3.06019e-05 1.68702e-11 1.45581e-09 9.8066 -3.38071e-10 -5.12916e-10 6.76746e-10
0.901 -2.20828e-05 -2.30823e-05 -3.17067e-05 -6.26497e-11 1.34735e-09 9.8066 -3.35245e-10 -5.13446e-10 7.65028e-10
0.902 -2.43993e-05 -2.49536e-05 -3.19951e-05 -2.76908e-10 1.24648e-09 9.8066 -3.32419e-10 -5.13911e-10 8.53185e-10
0.903 -2.60795e-05 -2.55075e-05 -3.20686e-05 -7.3205e-10 1.15892e-09 9.8066 -3.29594e-10 -5.14284e-10 9.40862e-10
0.904 -2.46567e-05 -2.79142e-05 -3.2948e-05 -1.41973e-09 1.08406e-09 9.8066 -3.26768e-10 -5.1457e-10 1.02773e-09
0.905 -2.51148e-05 -2.82117e-05 -3.28258e-05 -2.14525e-09 1.01271e-09 9.8066 -3.23944e-10 -5.14804e-10 1.11347e-09
0.906 -2.65929e-05 -2.77944e-05 -3.24025e-05 -2.61744e-09 9.31585e-10 9.8066 -3.21119e-10 -5.1503e-10 1.1978e-09
0.907 -2.78747e-05 -2.74075e-05 -3.28559e-05 -2.66053e-09 8.32194e-10 9.8066 -3.18295e-10 -5.15275e-10 1.28044e-09
0.908 -2.67772e-05 -2.55765e-05 -3.41563e-05 -2.35716e-09 7.16226e-10 9.8066 -3.15471e-10 -5.15541e-10 1.36112e-09
0.909 -2.55193e-05 -2.7071e-05 -3.49031e-05 -1.94387e-09 5.93395e-10 9.8066 -3.12647e-10 -5.15821e-10 1.43958e-09
0.91 -2.34922e-05 -2.82816e-05 -3.59464e-05 -1.57753e-09 4.71834e-10 9.8066 -3.09823e-10 -5.16109e-10 1.51557e-09
0.911 -2.22513e-05 -2.70031e-05 -3.56002e-05 -1.28264e-09 3.53694e-10 9.8066 -3.07e-10 -5.16402e-10 1.58886e-09
0.912 -2.17793e-05 -2.60195e-05 -3.50691e-05 -1.04672e-09 2.38548e-10 9.8066 -3.04177e-10 -5.16697e-10 1.65922e-09
0.913 -2.15342e-05 -2.54565e-05 -3.43641e-05 -8.57947e-10 1.25996e-10 9.8066 -3.01354e-10 -5.16995e-10 1.72643e-09
0.914 -2.01476e-05 -2.57104e-05 -3.52842e-05 -7.06896e-10 1.55536e-11 9.8066 -2.98532e-10 -5.17295e-10 1.79028e-09
0.915 -1.84512e-05 -2.9804e-05 -3.55046e-05 -5.86224e-10 -9.31921e-11 9.8066 -2.9571e-10 -5.17597e-10 1.85059e-09
0.916 -1.98462e-05 -3.01941e-05 -3.45362e-05 -4.89615e-10 -2.00626e-10 9.8066 -2.92888e-10 -5.17903e-10 1.90716e-09
0.917 -2.10531e-05 -2.97909e-05 -3.61789e-05 -4.12405e-10 -3.06865e-10 9.8066 -2.90066e-10 -5.18212e-10 1.95981e-09
0.918 -2.07645e-05 -2.99696e-05 -3.64021e-05 -3.50429e-10 -4.12225e-10 9.8066 -2.87245e-10 -5.18524e-10 2.00837e-09
0.919 -2.1231e-05 -2.88306e-05 -3.90053e-05 -3.00964e-10 -5.16843e-10 9.8066 -2.84424e-10 -5.18841e-10 2.05268e-09
0.92 -2.06637e-05 -2.86907e-05 -4.03663e-05 -2.61386e-10 -6.21049e-10 9.8066 -2.81603e-10 -5.19161e-10 2.09257e-09
0.921 -2.05223e-05 -2.79219e-05 -3.72763e-05 -2.29668e-10 -7.24829e-10 9.8066 -2.78782e-10 -5.19485e-10 2.1279e-09
0.922 -2.0185e-05 -2.70067e-05 -3.43565e-05 -2.03789e-10 -8.28203e-10 9.8066 -2.75962e-10 -5.19813e-10 2.15851e-09
0.923 -1.90505e-05 -2.52508e-05 -3.39322e-05 -1.68088e-10 -9.31738e-10 9.8066 -2.73142e-10 -5.20153e-10 2.18428e-09
0.924 -1.99936e-05 -2.50403e-05 -3.31656e-05 1.70119e-12 -1.0377e-09 9.8066 -2.70322e-10 -5.20541e-10 2.20505e-09
0.925 -1.87665e-05 -2.40104e-05 -3.46245e-05 6.15892e-10 -1.14459e-09 9.8066 -2.67503e-10 -5.21047e-10 2.2207e-09
0.926 -1.78924e-05 -2.68667e-05 -3.40036e-05 1.90417e-09 -1.24158e-09 9.8066 -2.64683e-10 -5.21744e-10 2.23109e-09
0.927 -1.89931e-05 -2.68177e-05 -3.36221e-05 3.64934e-09 -1.31698e-09 9.8066 -2.61864e-10 -5.22641e-10 2.2361e-09
0.928 -2.04522e-05 -2.75164e-05 -3.59593e-05 5.23336e-09 -1.37211e-09 9.8066 -2.59045e-10 -5.23658e-10 2.23561e-09
0.929 -2.20112e-05 -2.77539e-05 -3.75977e-05 6.06146e-09 -1.42448e-09 9.8066 -2.56225e-10 -5.2465e-10 2.22952e-09
0.93 -2.09728e-05 -2.85078e-05 -3.83223e-05 5.95487e-09 -1.49577e-09 9.8066 -2.53406e-10 -5.25491e-10 2.21774e-09
0.931 -1.93383e-05 -2.84961e-05 -3.96367e-05 5.19831e-09 -1.59664e-09 9.8066 -2.50588e-10 -5.26118e-10 2.20018e-09
0.932 -1.88131e-05 -2.93034e-05 -4.15942e-05 4.24631e-09 -1.72027e-09 9.8066 -2.4777e-10 -5.2653e-10 2.17673e-09
0.933 -1.93776e-05 -2.94342e-05 -4.40365e-05 3.38983e-09 -1.85007e-09 9.8066 -2.44952e-10 -5.2675e-10 2.14731e-09
0.934 -1.84898e-05 -3.05188e-05 -4.29841e-05 2.6939e-09 -1.9762e-09 9.8066 -2.42135e-10 -5.26801e-10 2.11182e-09
0.935 -1.90119e-05 -2.93505e-05 -4.38857e-05 2.13618e-09 -2.09731e-09 9.8066 -2.39318e-10 -5.26709e-10 2.07016e-09
0.936 -1.99753e-05 -2.9719e-05 -4.37079e-05 1.68942e-09 -2.21425e-09 9.8066 -2.36502e-10 -5.26494e-10 2.02227e-09
0.937 -2.10727e-05 -3.04027e-05 -4.74597e-05 1.33152e-09 -2.32777e-09 9.8066 -2.33686e-10 -5.26176e-10 1.96806e-09
0.938 -1.91311e-05 -3.02515e-05 -4.68442e-05 1.0449e-09 -2.26556e-09 9.8066 -2.3087e-10 -5.25774e-10 1.90802e-09
0.939 -1.76427e-05 -3.03598e-05 -4.54682e-05 8.1536e-10 -2.20658e-09 9.8066 -2.28055e-10 -5.25301e-10 1.8426e-09
0.94 -1.91496e-05 -2.75473e-05 -4.49293e-05 6.31448e-10 -2.15072e-09 9.8066 -2.2524e-10 -5.24772e-10 1.77221e-09
0.941 -2.17599e-05 -2.70885e-05 -4.59584e-05 4.84244e-10 -2.09804e-09 9.8066 -2.22426e-10 -5.24197e-10 1.69724e-09
0.942 -2.05536e-05 -2.74578e-05 -4.68359e-05 3.66412e-10 -2.0484e-09 9.8066 -2.19611e-10 -5.23586e-10 1.61804e-09
0.943 -2.09505e-05 -2.61447e-05 -4.63193e-05 2.72037e-10 -2.00197e-09 9.8066 -2.16798e-10 -5.22947e-10 1.53494e-09
0.944 -2.24896e-05 -2.53871e-05 -4.52775e-05 1.96622e-10 -1.95835e-09 9.8066 -2.13984e-10 -5.22285e-10 1.44825e-09
0.945 -2.01201e-05 -2.50575e-05 -4.47271e-05 1.36204e-10 -1.9177e-09 9.8066 -2.11171e-10 -5.21606e-10 1.35823e-09
0.946 -1.94318e-05 -2.53205e-05 -4.41427e-05 8.77939e-11 -1.87977e-09 9.8066 -2.08358e-10 -5.20913e-10 1.26516e-09
0.947 -2.11472e-05 -2.6241e-05 -4.28451e-05 4.64455e-11 -1.84446e-09 9.8066 -2.05546e-10 -5.20207e-10 1.16927e-09
0.948 -2.29073e-05 -2.81858e-05 -4.31677e-05 -1.14036e-11 -1.81102e-09 9.8066 -2.02734e-10 -5.19474e-10 1.07078e-09
0.949 -2.31245e-05 -2.53384e-05 -4.25364e-05 -1.62104e-10 -1.77556e-09 9.8066 -1.99923e-10 -5.18686e-10 9.69892e-10
0.951 -2.48821e-05 -2.42904e-05 -4.09281e-05 -1.13652e-09 -1.67696e-09 9.8066 -1.94301e-10 -5.16843e-10 7.6162e-10
0.952 -2.32933e-05 -2.55548e-05 -3.96629e-05 -1.88081e-09 -1.61735e-09 9.8066 -1.91491e-10 -5.15805e-10 6.54566e-10
0.953 -2.31529e-05 -2.45627e-05 -4.0538e-05 -2.47721e-09 -1.5654e-09 9.8066 -1.88681e-10 -5.14743e-10 5.45779e-10
0.954 -2.23774e-05 -2.59228e-05 -3.89041e-05 -2.68211e-09 -1.53233e-09 9.8066 -1.85872e-10 -5.1369e-10 4.35393e-10
0.955 -2.41337e-05 -2.59846e-05 -4.00142e-05 -2.48105e-09 -1.51995e-09 9.8066 -1.83063e-10 -5.12658e-10 3.23541e-10
0.956 -2.44005e-05 -2.44225e-05 -4.0049e-05 -2.08147e-09 -1.52061e-09 9.8066 -1.80254e-10 -5.11641e-10 2.10343e-10
0.957 -2.27273e-05 -2.32104e-05 -3.58327e-05 -1.69004e-09 -1.4257e-09 9.8066 -1.77446e-10 -5.10633e-10 9.62103e-11
0.958 -2.69212e-05 -2.33535e-05 -3.62664e-05 -1.37018e-09 -1.32929e-09 9.8066 -1.74639e-10 -5.09628e-10 -1.84514e-11
0.959 -2.51955e-05 -2.2891e-05 -3.79781e-05 -1.11417e-09 -1.23121e-09 9.8066 -1.71832e-10 -5.08626e-10 -1.33267e-10
0.96 -2.49076e-05 -2.14761e-05 -3.72036e-05 -9.09463e-10 -1.13182e-09 9.8066 -1.69025e-10 -5.07624e-10 -2.4787e-10
0.961 -2.52205e-05 -2.20879e-05 -3.7056e-05 -7.45613e-10 -1.03136e-09 9.8066 -1.66218e-10 -5.06624e-10 -3.61921e-10
0.962 -2.68726e-05 -2.03703e-05 -3.58698e-05 -6.14521e-10 -9.30172e-10 9.8066 -1.63412e-10 -5.05625e-10 -4.75088e-10
0.963 -2.68153e-05 -2.00645e-05 -3.69536e-05 -5.09713e-10 -8.28379e-10 9.8066 -1.60607e-10 -5.04627e-10 -5.87062e-10
0.964 -2.83668e-05 -2.108e-05 -3.70684e-05 -4.25884e-10 -7.26194e-10 9.8066 -1.57802e-10 -5.03632e-10 -6.97543e-10
0.965 -2.89956e-05 -1.88008e-05 -3.49578e-05 -3.58719e-10 -6.23694e-10 9.8066 -1.54997e-10 -5.02639e-10 -8.06248e-10
0.966 -3.05534e-05 -1.80702e-05 -3.51449e-05 -3.05106e-10 -5.20902e-10 9.8066 -1.52192e-10 -5.01649e-10 -9.12907e-10
0.967 -3.08449e-05 -1.93368e-05 -3.50057e-05 -2.62136e-10 -4.17986e-10 9.8066 -1.49388e-10 -5.00661e-10 -1.01726e-09
0.968 -3.12706e-05 -1.9871e-05 -3.3283e-05 -2.27687e-10 -3.14895e-10 9.8066 -1.46585e-10 -4.99677e-10 -1.11906e-09
0.969 -3.05346e-05 -1.77852e-05 -3.40095e-05 -2.001e-10 -2.11794e-10 9.8066 -1.43782e-10 -4.98696e-10 -1.21807e-09
0.97 -3.14582e-05 -1.53043e-05 -3.2204e-05 -1.73248e-10 -1.08745e-10 9.8066 -1.40979e-10 -4.97721e-10 -1.31407e-09
0.971 -3.15618e-05 -1.5528e-05 -2.99603e-05 -8.01794e-11 -7.20484e-12 9.8066 -1.38176e-10 -4.96776e-10 -1.40683e-09
0.972 -3.32164e-05 -1.53257e-05 -2.83579e-05 3.30475e-10 9.18741e-11 9.8066 -1.35374e-10 -4.95919e-10 -1.49616e-09
0.973 -3.11678e-05 -1.47822e-05 -2.70177e-05 1.36898e-09 1.95819e-10 9.8066 -1.32572e-10 -4.9523e-10 -1.58186e-09
0.974 -3.29071e-05 -1.17909e-05 -2.78647e-05 3.00416e-09 3.17927e-10 9.8066 -1.2977e-10 -4.94748e-10 -1.66376e-09
0.975 -3.4309e-05 -1.29072e-05 -2.92913e-05 4.72826e-09 4.62868e-10 9.8066 -1.26969e-10 -4.94424e-10 -1.74167e-09
0.976 -3.46106e-05 -1.30395e-05 -3.03596e-05 5.88118e-09 6.18162e-10 9.8066 -1.24167e-10 -4.9413e-10 -1.81541e-09
0.977 -3.60254e-05 -1.33412e-05 -3.07621e-05 6.10443e-09 7.62022e-10 9.8066 -1.21366e-10 -4.93724e-10 -1.8848e-09
0.978 -3.69036e-05 -1.49894e-05 -3.13464e-05 5.53346e-09 8.78189e-10 9.8066 -1.18565e-10 -4.93119e-10 -1.94966e-09
0.979 -3.63164e-05 -1.64091e-05 -3.24273e-05 4.60575e-09 9.66925e-10 9.8066 -1.15765e-10 -4.92294e-10 -2.00985e-09
0.98 -3.6163e-05 -1.83485e-05 -3.28078e-05 3.69705e-09 1.04349e-09 9.8066 -1.12965e-10 -4.91267e-10 -2.06521e-09
0.981 -3.76851e-05 -2.02137e-05 -3.39688e-05 2.94327e-09 1.121e-09 9.8066 -1.10166e-10 -4.90063e-10 -2.11562e-09
0.982 -4.00573e-05 -2.06976e-05 -3.65133e-05 2.3384e-09 1.20366e-09 9.8066 -1.07367e-10 -4.88705e-10 -2.16094e-09
0.983 -4.1797e-05 -2.08726e-05 -3.67776e-05 1.85373e-09 1.29049e-09 9.8066 -1.04569e-10 -4.87217e-10 -2.20103e-09
0.984 -4.18671e-05 -1.94434e-05 -3.74086e-05 1.46553e-09 1.38062e-09 9.8066 -1.01771e-10 -4.85618e-10 -2.23578e-09
0.985 -4.26922e-05 -1.93077e-05 -3.78287e-05 1.15444e-09 1.47326e-09 9.8066 -9.89735e-11 -4.83928e-10 -2.26508e-09
0.986 -4.23141e-05 -2.00466e-05 -3.70611e-05 9.0544e-10 1.56803e-09 9.8066 -9.61764e-11 -4.82163e-10 -2.2888e-09
0.987 -4.04619e-05 -1.91105e-05 -3.60854e-05 7.05867e-10 1.66413e-09 9.8066 -9.33797e-11 -4.80335e-10 -2.30685e-09
0.988 -4.17628e-05 -2.03342e-05 -3.78315e-05 5.46139e-10 1.76151e-09 9.8066 -9.05834e-11 -4.78458e-10 -2.31912e-09
0.989 -4.12795e-05 -2.09939e-05 -3.77033e-05 4.18225e-10 1.8596e-09 9.8066 -8.77874e-11 -4.7654e-10 -2.32551e-09
0.99 -4.14328e-05 -2.1872e-05 -3.9035e-05 3.15736e-10 1.95828e-09 9.8066 -8.49919e-11 -4.74591e-10 -2.32595e-09
0.991 -3.88768e-05 -2.11426e-05 -3.54325e-05 2.33832e-10 2.05741e-09 9.8066 -8.21967e-11 -4.72617e-10 -2.32032e-09
0.992 -3.86646e-05 -2.11081e-05 -3.62087e-05 1.68131e-10 2.1568e-09 9.8066 -7.9402e-11 -4.70623e-10 -2.30856e-09
0.993 -3.64903e-05 -2.37092e-05 -3.72026e-05 1.15635e-10 2.08524e-09 9.8066 -7.66075e-11 -4.68614e-10 -2.29114e-09
0.994 -3.62301e-05 -2.48492e-05 -3.83985e-05 7.27104e-11 2.01892e-09 9.8066 -7.38135e-11 -4.66591e-10 -2.26849e-09
0.995 -3.55314e-05 -2.39918e-05 -3.70136e-05 2.62389e-11 1.95786e-09 9.8066 -7.10199e-11 -4.64548e-10 -2.24102e-09
0.996 -3.59957e-05 -2.19888e-05 -3.67856e-05 -7.77882e-11 1.90388e-09 9.8066 -6.82266e-11 -4.62461e-10 -2.20911e-09
0.997 -3.76308e-05 -2.14395e-05 -3.62125e-05 -3.48347e-10 1.86251e-09 9.8066 -6.54337e-11 -4.60298e-10 -2.17311e-09
0.998 -3.86036e-05 -1.96193e-05 -3.5846e-05 -8.74339e-10 1.83815e-09 9.8066 -6.26412e-11 -4.58038e-10 -2.13334e-09
0.999 -3.88548e-05 -2.09815e-05 -3.62386e-05 -1.59842e-09 1.82752e-09 9.8066 -5.98492e-11 -4.55696e-10 -2.0901e-09
1.003 -4.10839e-05 -2.04096e-05 -4.02491e-05 -2.22457e-09 1.71876e-09 9.8066 -4.86854e-11 -4.46211e-10 -1.88736e-09
1.004 -4.27916e-05 -2.03558e-05 -3.97393e-05 -1.81534e-09 1.66925e-09 9.8066 -4.58954e-11 -4.43872e-10 -1.83033e-09
1.005 -4.28911e-05 -1.99189e-05 -3.84085e-05 -1.46887e-09 1.62389e-09 9.8066 -4.31058e-11 -4.41538e-10 -1.77113e-09
1.006 -4.2418e-05 -1.84373e-05 -3.74377e-05 -1.19121e-09 1.58368e-09 9.8066 -4.03166e-11 -4.39206e-10 -1.70995e-09
1.007 -4.07988e-05 -1.76528e-05 -3.55985e-05 -9.69068e-10 1.54807e-09 9.8066 -3.75277e-11 -4.36875e-10 -1.64694e-09
1.008 -4.05308e-05 -1.74856e-05 -3.54533e-05 -7.91387e-10 1.51635e-09 9.8066 -3.47393e-11 -4.34544e-10 -1.58223e-09
1.009 -4.21505e-05 -1.799e-05 -3.68012e-05 -6.49362e-10 1.48825e-09 9.8066 -3.19511e-11 -4.32215e-10 -1.51596e-09
1.01 -4.33148e-05 -1.60067e-05 -3.45089e-05 -5.35679e-10 1.46318e-09 9.8066 -2.91634e-11 -4.29886e-10 -1.44824e-09
1.011 -4.25049e-05 -1.70366e-05 -3.21187e-05 -4.44744e-10 1.44066e-09 9.8066 -2.6376e-11 -4.27559e-10 -1.37919e-09
1.012 -4.02037e-05 -1.94835e-05 -3.38819e-05 -3.72052e-10 1.42042e-09 9.8066 -2.35889e-11 -4.25234e-10 -1.3089e-09
1.013 -3.86085e-05 -1.90172e-05 -3.5244e-05 -3.13863e-10 1.40232e-09 9.8066 -2.08022e-11 -4.22912e-10 -1.23747e-09
1.014 -3.77806e-05 -1.80622e-05 -3.52959e-05 -2.67379e-10 1.38597e-09 9.8066 -1.80159e-11 -4.20593e-10 -1.16498e-09
1.015 -3.60649e-05 -1.75418e-05 -3.59985e-05 -2.30135e-10 1.37131e-09 9.8066 -1.52299e-11 -4.18276e-10 -1.09152e-09
1.016 -3.60615e-05 -1.75704e-05 -3.57572e-05 -2.23962e-10 1.30624e-09 9.8066 -1.24487e-11 -4.15886e-10 -1.01731e-09
1.017 -3.60992e-05 -1.56802e-05 -3.35449e-05 -2.22544e-10 1.24232e-09 9.8066 -9.67643e-12 -4.13351e-10 -9.42595e-10
1.018 -3.50175e-05 -1.37457e-05 -3.5387e-05 -1.95318e-10 1.1785e-09 9.8066 -6.91718e-12 -4.10613e-10 -8.67581e-10
1.019 -3.61684e-05 -1.36151e-05 -3.62303e-05 3.44822e-11 1.11261e-09 9.8066 -4.17478e-12 -4.0765e-10 -7.92477e-10
1.02 -3.46069e-05 -1.42837e-05 -3.50046e-05 7.96771e-10 1.04851e-09 9.8066 -1.45288e-12 -4.04474e-10 -7.17486e-10
1.021 -3.48167e-05 -1.42254e-05 -3.45767e-05 2.22629e-09 9.98339e-10 9.8066 1.24502e-12 -4.01085e-10 -6.42806e-10
1.022 -3.51608e-05 -1.35115e-05 -3.57755e-05 3.97285e-09 9.71593e-10 9.8066 3.91551e-12 -3.97409e-10 -5.68618e-10
1.023 -3.43582e-05 -1.42916e-05 -3.5131e-05 5.37659e-09 9.62209e-10 9.8066 6.55518e-12 -3.93285e-10 -4.95075e-10
1.024 -3.55762e-05 -1.59002e-05 -3.5101e-05 5.92613e-09 9.49873e-10 9.8066 9.16071e-12 -3.8851e-10 -4.22348e-10
1.025 -3.70907e-05 -1.73591e-05 -3.37791e-05 5.57932e-09 9.14638e-10 9.8066 1.17289e-11 -3.82919e-10 -3.50555e-10
1.026 -3.68979e-05 -1.76462e-05 -3.44326e-05 4.70398e-09 8.5005e-10 9.8066 1.42568e-11 -3.76419e-10 -2.79867e-10
1.027 -3.58953e-05 -1.96845e-05 -3.44661e-05 3.7357e-09 7.67349e-10 9.8066 1.67416e-11 -3.68969e-10 -2.10398e-10
1.028 -3.77759e-05 -1.98255e-05 -3.52836e-05 2.89776e-09 6.82089e-10 9.8066 1.91806e-11 -3.60547e-10 -1.42306e-10
1.029 -3.75206e-05 -1.81629e-05 -3.45233e-05 2.2174e-09 6.01747e-10 9.8066 2.15711e-11 -3.51131e-10 -7.57121e-11
1.03 -3.80127e-05 -1.66581e-05 -3.49021e-05 1.66736e-09 5.26469e-10 9.8066 2.39107e-11 -3.40702e-10 -1.07329e-11
1.032 -3.87183e-05 -1.1245e-05 -3.76323e-05 8.5998e-10 3.87216e-10 9.8066 2.84278e-11 -3.16721e-10 1.13889e-10
1.033 -3.96346e-05 -1.03938e-05 -3.84695e-05 5.65165e-10 3.21908e-10 9.8066 3.06007e-11 -3.03126e-10 1.73316e-10
1.034 -3.84837e-05 -1.12897e-05 -3.86469e-05 3.24074e-10 2.58671e-10 9.8066 3.27137e-11 -2.88433e-10 2.30681e-10
1.035 -3.83603e-05 -1.12112e-05 -3.83035e-05 1.26033e-10 1.97042e-10 9.8066 3.47647e-11 -2.72618e-10 2.85888e-10
1.036 -3.77069e-05 -1.01229e-05 -3.90733e-05 -3.74479e-11 1.36894e-10 9.8066 3.67518e-11 -2.55656e-10 3.38848e-10
1.037 -3.77432e-05 -9.2878e-06 -4.06897e-05 -1.73453e-10 7.78223e-11 9.8066 3.86731e-11 -2.37523e-10 3.89471e-10
1.038 -3.67549e-05 -9.73404e-06 -4.04234e-05 -2.27093e-10 5.36416e-11 9.8066 4.0538e-11 -2.1839e-10 4.37783e-10
1.039 -3.72181e-05 -1.10351e-05 -3.98045e-05 -2.63819e-10 2.8036e-11 9.8066 4.23554e-11 -1.98416e-10 4.83803e-10
1.04 -3.74782e-05 -1.01382e-05 -3.64782e-05 -2.87195e-10 1.08887e-12 9.8066 4.41336e-11 -1.77749e-10 5.27543e-10
1.043 -4.19747e-05 -8.07685e-06 -3.57024e-05 -3.51161e-10 -8.599e-11 9.8066 4.931e-11 -1.12904e-10 6.45114e-10
1.044 -4.03751e-05 -8.30077e-06 -3.54733e-05 -5.15675e-10 -1.10185e-10 9.8066 5.10059e-11 -9.06863e-11 6.79735e-10
1.045 -4.18614e-05 -7.6132e-06 -3.81577e-05 -9.14336e-10 -1.23665e-10 9.8066 5.26976e-11 -6.83052e-11 7.12044e-10
1.046 -4.10814e-05 -8.14377e-06 -4.17874e-05 -1.55504e-09 -1.25764e-10 9.8066 5.4391e-11 -4.58627e-11 7.42024e-10
1.047 -4.18479e-05 -7.65398e-06 -4.45706e-05 -2.26021e-09 -1.24903e-10 9.8066 5.60916e-11 -2.34877e-11 7.6966e-10
1.048 -4.00205e-05 -5.69386e-06 -4.69701e-05 -2.73967e-09 -1.34134e-10 9.8066 5.78045e-11 -1.31531e-12 7.94945e-10
1.049 -3.86861e-05 -5.44884e-06 -4.8563e-05 -2.79705e-09 -1.62857e-10 9.8066 5.95347e-11 2.05404e-11 8.17857e-10
1.05 -3.93708e-05 -6.40147e-06 -4.90742e-05 -2.48956e-09 -2.10065e-10 9.8066 6.12869e-11 4.19938e-11 8.38381e-10
1.051 -3.99386e-05 -5.04143e-06 -5.1638e-05 -2.0496e-09 -2.66454e-10 9.8066 6.30655e-11 6.29748e-11 8.56494e-10
1.052 -4.00846e-05 -3.80871e-06 -4.97661e-05 -1.64842e-09 -3.23329e-10 9.8066 6.48746e-11 8.34171e-11 8.72162e-10
1.053 -4.08694e-05 -4.2739e-06 -5.0234e-05 -1.31963e-09 -3.77908e-10 9.8066 6.67181e-11 1.03256e-10 8.85353e-10
1.054 -3.98874e-05 -2.35579e-06 -4.93579e-05 -1.0513e-09 -4.30417e-10 9.8066 6.85998e-11 1.22427e-10 8.9604e-10
1.055 -3.7689e-05 -3.48506e-06 -4.91994e-05 -8.31542e-10 -4.81284e-10 9.8066 7.05232e-11 1.4087e-10 9.04194e-10
1.056 -3.69342e-05 -4.25073e-06 -5.03393e-05 -6.50582e-10 -5.30961e-10 9.8066 7.24916e-11 1.58527e-10 9.09779e-10
1.057 -3.67197e-05 -4.80494e-06 -5.14878e-05 -5.36385e-10 -5.08735e-10 9.8066 7.45015e-11 1.75458e-10 9.12996e-10
1.058 -3.56454e-05 -5.91056e-06 -4.99344e-05 -4.46299e-10 -4.87491e-10 9.8066 7.65497e-11 1.91716e-10 9.14025e-10
1.059 -3.46716e-05 -6.46475e-06 -5.16051e-05 -3.75292e-10 -4.67154e-10 9.8066 7.86333e-11 2.07354e-10 9.13036e-10
1.06 -3.26195e-05 -6.98793e-06 -5.25682e-05 -3.19651e-10 -4.47872e-10 9.8066 8.07494e-11 2.22417e-10 9.10183e-10
1.061 -3.19631e-05 -7.02767e-06 -5.48104e-05 -2.76105e-10 -4.2966e-10 9.8066 8.28956e-11 2.36949e-10 9.05609e-10
1.062 -2.9973e-05 -6.1986e-06 -5.72153e-05 -2.42225e-10 -4.12498e-10 9.8066 8.50696e-11 2.50991e-10 8.99446e-10
1.063 -2.94769e-05 -3.94721e-06 -5.85399e-05 -2.15959e-10 -3.96322e-10 9.8066 8.72691e-11 2.64579e-10 8.91816e-10
1.064 -2.95668e-05 -5.17387e-06 -5.84658e-05 -1.95616e-10 -3.80988e-10 9.8066 8.94921e-11 2.77748e-10 8.82832e-10
1.065 -3.08051e-05 -5.45443e-06 -5.82898e-05 -1.68886e-10 -3.67075e-10 9.8066 9.17369e-11 2.90523e-10 8.72596e-10
1.066 -3.32307e-05 -5.94651e-06 -5.9389e-05 -2.89834e-11 -3.5623e-10 9.8066 9.40018e-11 3.02902e-10 8.61205e-10
1.067 -3.10011e-05 -4.38947e-06 -5.68599e-05 5.2143e-10 -3.47741e-10 9.8066 9.62853e-11 3.14843e-10 8.48741e-10
1.068 -3.13683e-05 -5.35083e-06 -5.97226e-05 1.7396e-09 -3.31758e-10 9.8066 9.85861e-11 3.26297e-10 8.3528e-10
1.069 -3.14444e-05 -6.03732e-06 -5.85387e-05 3.45894e-09 -2.95661e-10 9.8066 1.00903e-10 3.37268e-10 8.20881e-10
1.07 -3.07169e-05 -5.59438e-06 -5.87218e-05 5.08531e-09 -2.39246e-10 9.8066 1.03234e-10 3.47852e-10 8.05631e-10
1.071 -3.1207e-05 -5.11585e-06 -5.94211e-05 6.00034e-09 -1.7843e-10 9.8066 1.05579e-10 3.58207e-10 7.89582e-10
1.072 -3.17003e-05 -6.15411e-06 -6.22986e-05 5.97537e-09 -1.35393e-10 9.8066 1.07936e-10 3.68484e-10 7.72818e-10
1.073 -2.97315e-05 -7.13505e-06 -6.235e-05 5.25885e-09 -1.22315e-10 9.8066 1.10305e-10 3.7877e-10 7.55413e-10
1.074 -3.01635e-05 -7.23181e-06 -6.09939e-05 4.30544e-09 -1.33905e-10 9.8066 1.12683e-10 3.89086e-10 7.37394e-10
1.079 -2.44691e-05 -6.91842e-06 -5.99982e-05 1.40954e-09 -9.50387e-12 9.8066 1.2462e-10 4.39305e-10 6.42713e-10
1.08 -2.35274e-05 -8.28998e-06 -6.26044e-05 1.13762e-09 3.4286e-11 9.8066 1.26983e-10 4.48514e-10 6.24087e-10
1.081 -2.33182e-05 -6.92416e-06 -6.03397e-05 9.24147e-10 7.99259e-11 9.8066 1.29328e-10 4.57274e-10 6.05944e-10
1.085 -2.69902e-05 -5.35789e-06 -6.06221e-05 4.55011e-10 2.72761e-10 9.8066 1.3845e-10 4.86592e-10 5.40998e-10
1.086 -2.92185e-05 -6.64275e-06 -6.01768e-05 3.99745e-10 3.22464e-10 9.8066 1.40649e-10 4.9221e-10 5.27323e-10
1.087 -2.88711e-05 -7.09326e-06 -6.01762e-05 3.59967e-10 3.72281e-10 9.8066 1.42808e-10 4.97042e-10 5.14912e-10
1.088 -2.76468e-05 -6.9556e-06 -5.93549e-05 3.32598e-10 4.22404e-10 9.8066 1.44926e-10 5.01041e-10 5.03877e-10
1.089 -2.82435e-05 -8.87622e-06 -6.14215e-05 3.1331e-10 4.72621e-10 9.8066 1.46998e-10 5.04167e-10 4.94322e-10
1.09 -2.95602e-05 -9.15973e-06 -6.10875e-05 2.81718e-10 5.23288e-10 9.8066 1.49022e-10 5.0639e-10 4.86346e-10
1.092 -2.74518e-05 -7.71536e-06 -6.26371e-05 -1.44036e-10 6.42787e-10 9.8066 1.52917e-10 5.08093e-10 4.75495e-10
1.093 -2.74902e-05 -7.77708e-06 -6.3356e-05 -7.14066e-10 7.207e-10 9.8066 1.54783e-10 5.07544e-10 4.72784e-10
1.094 -2.58615e-05 -8.73066e-06 -6.39086e-05 -1.43389e-09 8.0644e-10 9.8066 1.5659e-10 5.05997e-10 4.71994e-10
1.095 -2.63776e-05 -7.6721e-06 -6.09384e-05 -2.03511e-09 8.87893e-10 9.8066 1.58338e-10 5.03375e-10 4.73217e-10
1.096 -2.50189e-05 -1.02707e-05 -6.27817e-05 -2.26101e-09 9.53078e-10 9.8066 1.60024e-10 4.99608e-10 4.76528e-10
1.097 -2.35452e-05 -1.13455e-05 -6.40537e-05 -2.0702e-09 9.98902e-10 9.8066 1.61645e-10 4.94654e-10 4.8201e-10
1.098 -2.25672e-05 -1.17687e-05 -6.37011e-05 -1.6562e-09 1.03249e-09 9.8066 1.63201e-10 4.88486e-10 4.89738e-10
1.099 -2.22665e-05 -1.32525e-05 -6.40856e-05 -1.2359e-09 1.06367e-09 9.8066 1.64688e-10 4.81085e-10 4.99768e-10
1.1 -2.25022e-05 -1.28651e-05 -6.52253e-05 -8.85958e-10 1.09738e-09 9.8066 1.66106e-10 4.72426e-10 5.12167e-10
1.101 -2.16597e-05 -1.31842e-05 -6.56172e-05 -6.013e-10 1.1341e-09 9.8066 1.67453e-10 4.62485e-10 5.26991e-10
1.102 -2.61638e-05 -1.38668e-05 -6.33914e-05 -3.68774e-10 1.17333e-09 9.8066 1.68726e-10 4.51239e-10 5.44301e-10
1.103 -2.45071e-05 -1.25031e-05 -6.37531e-05 -2.16748e-10 1.13813e-09 9.8066 1.69932e-10 4.38787e-10 5.63902e-10
1.104 -2.37786e-05 -1.66942e-05 -6.40452e-05 -9.7198e-11 1.10652e-09 9.8066 1.71076e-10 4.25222e-10 5.8562e-10
1.105 -2.21538e-05 -1.58636e-05 -6.50396e-05 -3.47971e-12 1.07851e-09 9.8066 1.72162e-10 4.1063e-10 6.0929e-10
1.106 -2.17774e-05 -1.58613e-05 -6.44026e-05 6.97626e-11 1.05337e-09 9.8066 1.73196e-10 3.9509e-10 6.34764e-10
1.107 -2.23576e-05 -1.23791e-05 -6.36508e-05 1.26724e-10 1.0308e-09 9.8066 1.7418e-10 3.78673e-10 6.61904e-10
1.108 -2.502e-05 -1.13973e-05 -6.3112e-05 1.7073e-10 1.01063e-09 9.8066 1.7512e-10 3.61448e-10 6.90582e-10
1.109 -2.49119e-05 -1.13379e-05 -6.45636e-05 2.04571e-10 9.92549e-10 9.8066 1.76017e-10 3.43477e-10 7.20683e-10
1.11 -2.40248e-05 -1.09815e-05 -6.51394e-05 2.30239e-10 9.76221e-10 9.8066 1.76876e-10 3.24817e-10 7.52097e-10
1.111 -2.33142e-05 -1.03449e-05 -6.65388e-05 2.49724e-10 9.61522e-10 9.8066 1.777e-10 3.05522e-10 7.84725e-10
1.112 -2.204e-05 -9.60466e-06 -6.73388e-05 2.67398e-10 9.48296e-10 9.8066 1.78491e-10 2.85638e-10 8.18477e-10
1.113 -2.23032e-05 -8.28323e-06 -6.76041e-05 3.38583e-10 9.34928e-10 9.8066 1.79251e-10 2.65192e-10 8.53267e-10
1.114 -2.29439e-05 -9.26953e-06 -6.64815e-05 6.95122e-10 9.20043e-10 9.8066 1.79984e-10 2.44169e-10 8.89014e-10
1.115 -2.26668e-05 -8.69473e-06 -6.6239e-05 1.65822e-09 9.09872e-10 9.8066 1.80691e-10 2.22529e-10 9.25639e-10
1.116 -2.16015e-05 -8.06377e-06 -6.56378e-05 3.24467e-09 9.17696e-10 9.8066 1.81374e-10 2.00262e-10 9.63061e-10
1.117 -2.14586e-05 -7.80405e-06 -6.60006e-05 4.98482e-09 9.49231e-10 9.8066 1.82036e-10 1.77438e-10 1.00122e-09
1.118 -2.44543e-05 -7.50652e-06 -6.70145e-05 6.21237e-09 9.94099e-10 9.8066 1.82677e-10 1.54212e-10 1.04008e-09
1.119 -2.51729e-05 -7.36537e-06 -6.67902e-05 6.52413e-09 1.03023e-09 9.8066 1.833e-10 1.30756e-10 1.07957e-09
1.12 -2.43289e-05 -7.3171e-06 -6.70388e-05 6.00949e-09 1.04027e-09 9.8066 1.83905e-10 1.07189e-10 1.11968e-09
1.121 -2.51704e-05 -8.0832e-06 -6.57081e-05 5.0691e-09 9.70884e-10 9.8066 1.8449e-10 8.36377e-11 1.16017e-09
1.122 -2.53349e-05 -8.06134e-06 -6.51885e-05 4.12116e-09 8.88053e-10 9.8066 1.85051e-10 6.01807e-11 1.20087e-09
1.123 -2.60893e-05 -6.97598e-06 -6.6e-05 3.32408e-09 8.05789e-10 9.8066 1.85586e-10 3.68836e-11 1.24155e-09
1.124 -2.743e-05 -5.0696e-06 -6.55997e-05 2.67878e-09 7.28809e-10 9.8066 1.86092e-10 1.38078e-11 1.28205e-09
1.125 -2.81509e-05 -3.30704e-06 -6.68396e-05 2.15659e-09 6.56568e-10 9.8066 1.86566e-10 -8.98798e-12 1.32217e-09
1.126 -2.72679e-05 -2.77414e-06 -6.54521e-05 1.73312e-09 5.88154e-10 9.8066 1.87005e-10 -3.1447e-11 1.36176e-09
1.127 -2.72831e-05 -3.29155e-06 -6.34694e-05 1.38877e-09 5.22869e-10 9.8066 1.87407e-10 -5.35139e-11 1.40064e-09
1.128 -2.89989e-05 -4.6809e-06 -6.39616e-05 1.10777e-09 4.60067e-10 9.8066 1.87769e-10 -7.51346e-11 1.43867e-09
1.129 -2.89339e-05 -6.55627e-06 -6.40112e-05 8.77818e-10 3.99108e-10 9.8066 1.88089e-10 -9.62559e-11 1.47569e-09
1.13 -2.87699e-05 -6.55775e-06 -6.48919e-05 6.88367e-10 3.39871e-10 9.8066 1.88364e-10 -1.16826e-10 1.51157e-09
1.131 -2.97288e-05 -8.5506e-06 -6.81986e-05 5.31681e-10 2.81807e-10 9.8066 1.88591e-10 -1.36793e-10 1.54618e-09
1.132 -2.79828e-05 -8.22048e-06 -6.86545e-05 4.01128e-10 2.2484e-10 9.8066 1.8877e-10 -1.56109e-10 1.57938e-09
1.133 -2.84087e-05 -6.46306e-06 -6.85285e-05 2.91531e-10 1.68801e-10 9.8066 1.88897e-10 -1.74723e-10 1.61105e-09
