t wx wy wz ax ay az

0.0 -0.000806086 0.00789656 -0.00367128 -0.228306 -0.204431 9.75269
0.001 -0.0147697 -0.00489216 -0.000178941 -0.422355 -0.161968 9.93352
0.002 -0.00287235 -0.00257901 -0.00410264 -0.0856239 -0.142969 9.81258
0.003 -0.00750897 -0.00732236 0.00268734 -0.296614 -0.0322362 9.89155
0.004 -0.00563845 0.000378562 -0.00917935 -0.190191 -0.0699749 9.93111
0.005 -0.0063911 0.00442916 -0.00551924 -0.288852 0.0663851 9.99866
0.006 0.0275295 -0.00445684 0.00735834 -0.0572905 -0.175926 9.78253
0.007 0.0137345 0.00635312 -0.0007224 -0.27209 -0.177147 9.84347
0.008 0.00834821 0.00689828 0.00851721 -0.167553 -0.202722 9.75223
0.009 -0.00376322 0.00920273 -0.000731347 0.072176 -0.325916 10.0228
0.01 0.0024237 0.00983517 -0.0166396 -0.424441 -0.143092 9.87665
0.011 -0.00802508 0.00747966 0.00664221 -0.390312 -0.0866793 9.98127
0.012 -0.0296215 -0.00183538 -0.0140772 -0.217842 -0.105193 9.84883
0.013 -0.00502164 0.00443586 -0.000409058 -0.29294 -0.0621279 10.0204
0.014 0.00811495 -0.00563204 -0.0149692 -0.152787 -0.223906 10.2019
0.015 -0.0177378 0.016398 0.00820537 -0.319864 -0.25689 10.0057
0.016 -0.010302 0.0129418 0.00241284 -0.219382 -0.183614 9.71003
0.017 -0.0125731 0.00790064 -0.00357158 0.0362047 -0.165422 10.0394
0.018 0.00855808 -0.0167811 0.0121649 -0.218943 -0.273864 9.64064
0.019 -0.00940136 0.0118409 0.00464577 -0.0722239 0.0897135 9.87185
0.02 0.000820775 -0.000735875 0.0125106 -0.306755 0.0152729 9.97148
0.021 0.00159575 0.00830684 -0.00740289 -0.409283 -0.217705 9.98595
0.022 -0.00257317 0.00982866 -0.0110335 -0.563775 0.0266795 9.85316
0.023 0.0224987 0.0221507 0.0031045 -0.0927393 -0.219923 10.0178
0.024 -0.00624509 -0.0063963 -0.0142636 -0.288061 -0.0775003 9.84817
0.025 0.0141823 -0.0115742 -0.00478553 -0.17535 -0.286652 10.0356
0.026 0.0057504 0.01273 -0.00740254 -0.204218 -0.2153 9.92083
0.027 0.0192307 0.00183773 -0.000415027 -0.0939311 -0.280112 9.70239
0.028 -0.00270807 0.0115684 -0.00434168 -0.283567 -0.0937253 10.1292
0.029 0.0197394 -0.0125603 0.00593047 -0.196523 -0.0993567 9.70998
0.03 0.0069259 -0.0145916 0.00903025 -0.20971 -0.360593 9.96328
0.031 -0.0145373 0.000928969 -0.0103326 -0.0541945 0.0670309 9.96583
0.032 -0.027245 0.0123645 -0.00504341 -0.0729173 -0.220044 9.95152
0.033 -0.00639288 -0.00537758 0.0229054 -0.306099 -0.101356 10.0522
0.034 -0.0189467 0.00582282 -0.000925413 -0.403696 -0.191951 9.75275
0.035 -0.0256136 -0.00212243 0.0128806 -0.297829 -0.20867 9.626
0.036 0.00573237 0.0160768 0.00437905 -0.203776 -0.363057 9.90583
0.037 -0.00786222 0.000986614 0.00212588 -0.332689 -0.267733 10.023
0.038 0.0146817 -0.00121355 0.00134059 -0.191803 -0.358433 9.87254
0.039 0.000913981 0.0009575 0.00171809 -0.0318081 -0.0671141 9.87391
0.04 0.0103547 0.0214916 0.0126615 0.00991873 -0.218417 9.95659
0.041 0.00753199 0.017706 0.000853596 -0.56965 -0.316145 9.71575
0.042 -0.0129934 0.00819771 -0.0183688 -0.267729 -0.164529 9.69157
0.043 -0.00752933 0.00152766 -0.024604 0.0602024 -0.222053 9.96924
0.044 -0.00673138 -0.00666858 0.0105705 -0.153756 -0.103885 10.0743
0.045 0.010227 0.0218714 -0.00588978 -0.120519 0.0469824 9.84673
0.046 -0.00725253 0.0189928 -0.0107093 -0.153466 -0.263842 9.61192
0.047 -0.000684868 0.0111614 -0.0200738 -0.232698 -0.0725459 9.74933
0.048 0.00592698 0.0139773 0.0138248 -0.128308 -0.0242653 10.0369
0.049 0.0104211 0.00899747 0.0134766 -0.270381 -0.114105 9.73492
0.05 -0.00260456 0.00533263 0.00725641 -0.122977 -0.0480776 9.80869
0.051 -0.00371016 0.00377897 0.00341398 -0.256787 -0.0558764 9.74949
0.052 -0.0117357 0.0209588 0.0214458 -0.166157 -0.256076 10.0441
0.053 -0.00409468 0.0206099 0.00426332 -0.357153 -0.38365 9.86815
0.054 -0.027589 0.0089408 -0.0148647 -0.0537928 -0.202297 9.88243
0.055 -0.0147485 0.00622551 -0.0143517 -0.229886 -0.151808 9.88305
0.056 -0.0118253 0.0111607 0.00738007 -0.111816 -0.264466 9.641
0.057 -0.0149743 -0.0107396 0.00025624 -0.117558 -0.40414 9.71998
0.058 -0.0048948 0.0229252 -0.000525928 -0.656009 -0.325438 9.76496
0.059 0.0198371 0.00648187 0.000390185 -0.340657 -0.107182 10.0731
0.06 0.00215447 0.00382367 -0.0130741 -0.271877 -0.0276898 9.98799
0.061 -0.00740243 -0.00199781 -0.00260852 -0.202582 0.00454887 9.66851
0.062 0.00154097 0.00470463 0.00112097 -0.273087 -0.174722 9.82053
0.063 0.0105677 0.00277582 -0.00389071 -0.304381 -0.196357 9.88135
0.064 -0.00405697 0.00157829 -0.00431244 -0.100527 -0.195024 9.77411
0.065 -0.0056871 0.0124694 0.00792831 -0.274706 -0.268007 9.76666
0.066 -0.00858658 -0.0205938 0.00283872 -0.307628 -0.203245 9.92894
0.067 -0.0142776 -0.00271445 -0.00933467 -0.0971849 -0.124475 9.7451
0.068 -0.0111502 0.000546452 0.0164371 -0.274322 -0.158784 10.0562
0.069 0.00400143 -0.015963 -0.0128242 -0.370658 -0.209411 10.1674
0.07 0.00565938 -0.000796343 -0.0159202 -0.373827 -0.264512 9.87783
0.071 0.0116555 0.00767987 -0.00156589 -0.102846 -0.108995 9.97074
0.072 0.0133587 0.0091691 0.0145351 -0.310197 0.0195859 9.93738
0.074 0.00902977 -0.00672809 0.00334072 -0.0736732 -0.242716 9.94199
0.075 0.00150753 0.00557505 0.00693129 -0.231072 -0.0944047 9.8143
0.076 -0.0117084 0.0132019 -0.00582039 -0.224763 -0.0826252 9.97813
0.077 -0.00154393 0.00691455 0.00748406 0.0520359 -0.407076 9.77457
0.078 -0.00837365 -0.000442343 0.00547904 -0.305584 -0.327593 9.74088
0.079 0.00494829 0.0112587 0.000825312 -0.212227 -0.259671 10.0637
0.08 0.00638574 0.0205233 0.00748273 -0.273983 -0.391149 9.7131
0.081 -0.0298641 0.0108304 0.0024752 -0.216946 -0.275805 9.87748
0.083 -0.00819326 0.0103046 0.004673 -0.352546 -0.32534 9.78094
0.084 -0.00899549 -0.000183171 -0.0061495 -0.400828 -0.00930798 9.7495
0.085 -0.0114552 0.0128247 0.000378394 -0.123805 -0.285119 9.82112
0.086 0.0024435 -0.00751475 0.0230664 -0.280212 -0.146865 9.90443
0.087 -0.00153677 0.010759 -0.001884 -0.238157 -0.266345 9.93043
0.088 -0.00533432 0.0163209 0.00155302 -0.192804 -0.194769 9.74307
0.089 0.0198071 0.0150286 0.00551822 -0.246681 -0.13707 9.8388
0.09 0.0049457 0.0203857 -0.000596058 -0.374931 -0.116618 9.79378
0.091 -0.00580586 0.0151598 0.000769362 -0.068477 -0.191739 9.83879
0.092 0.0151094 -0.0067508 0.0161504 -0.324088 -0.232186 10.0846
0.093 -0.00678978 0.00467892 -0.00622843 -0.314768 -0.160863 9.90641
0.094 0.0122889 0.011868 -0.00473375 -0.0558986 -0.129704 9.90623
0.095 -0.0201487 0.000937089 -0.00416883 -0.137471 -0.432996 9.85031
0.096 0.00900366 0.0227298 0.00721524 -0.271734 -0.196747 9.65556
0.097 -0.0223231 0.0166094 -0.00288041 -0.0216529 -0.2906 9.78362
0.098 0.00656371 0.017491 0.0038655 0.0617809 -0.0912278 9.63613
0.099 -0.00955602 0.00484722 -0.00472453 -0.416966 -0.185758 9.88812
0.1 -0.00554724 0.00253354 -0.00828484 -0.178391 -0.0834862 10.0303
0.101 -0.00151257 -0.0111253 0.00278109 -0.0423662 -0.163695 10.0425
0.102 0.00999521 0.00965853 0.00444927 -0.286007 -0.184313 9.7526
0.103 -0.00822662 -0.0141407 -0.00471004 -0.396663 -0.298126 9.59613
0.104 -0.00513132 0.00532216 -0.0175537 -0.126824 -0.133633 9.8843
0.105 -0.00787301 0.0360708 -0.0217605 -0.341825 -0.142883 9.8675
0.106 -0.0144891 0.0102012 0.00808295 -0.187564 -0.208235 9.6065
0.107 -0.0107615 -0.00200085 0.00842437 -0.191279 -0.110962 9.83589
0.108 -0.0169832 0.00423797 -0.0227781 -0.26014 -0.101174 9.9323
0.109 0.00252479 -0.00595558 0.00364705 -0.148317 -0.372334 9.74741
0.11 -0.000583021 0.002244 -0.0279106 -0.117043 -0.180433 9.92366
0.111 -0.00638973 0.0234441 -0.0128306 -0.301196 0.0507219 9.80147
0.112 0.0150792 0.0117198 0.00357583 -0.0679721 -0.214519 9.86576
0.113 -0.00390172 0.00610112 -0.0182131 -0.361299 -0.0589703 9.97891
0.114 -0.00331503 0.00843199 -0.0140905 -0.242044 -0.0619399 9.9255
0.115 -0.00562881 0.00801975 -0.00990262 -0.414741 -0.361144 9.72684
0.116 0.0184168 0.00130408 0.0122876 -0.204807 -0.185079 9.80787
0.117 0.0254568 0.00374092 -0.00614872 -0.00504703 -0.373863 9.92011
0.118 0.0051399 0.00132043 0.00759853 -0.378371 -0.123219 9.76669
0.119 -0.00564803 0.00374301 -0.00379304 0.0171848 -0.150347 9.88089
0.12 0.00783045 0.00777782 -0.00213273 -0.397791 -0.0778058 9.91925
0.121 0.00761887 0.0193636 -0.000823852 -0.307053 -0.129533 10.0367
0.122 -0.0185787 0.00584827 0.017653 -0.117917 -0.187374 9.73734
0.123 -0.0147158 -0.00608614 0.00361872 -0.300583 0.0335706 9.89012
0.124 -0.0141649 0.00665174 -0.00832564 -0.345543 -0.157792 9.8462
0.125 0.00343875 0.00252214 0.0160417 -0.139807 -0.381174 9.9527
0.126 -0.000742712 0.0137979 -0.00465657 -0.384202 -0.315293 9.89112
0.127 0.00425509 0.0126896 0.0200107 -0.191299 -0.321783 9.74429
0.128 -0.00335916 1.00904e-05 0.00886763 -0.506338 -0.143962 9.82857
0.129 0.00732199 0.0255659 0.0215632 -0.151249 -0.25466 9.7805
0.13 0.0133402 0.0104312 -0.0121087 -0.298449 0.0047184 9.84404
0.131 0.0267215 0.0134444 0.00154556 -0.235388 -0.213296 10.0545
0.132 -0.0138879 -0.000168146 -0.0122848 -0.167073 -0.127935 9.90744
0.133 0.0107606 0.0208455 0.0119075 -0.120579 0.0293413 9.88577
0.134 -0.00952733 -0.00533889 -0.00493802 -0.242161 -0.275672 9.96904
0.135 0.0129583 -0.000649437 0.0134053 -0.069297 -0.204805 9.84161
0.136 0.0117923 0.0148348 -0.000507749 -0.320272 -0.244576 9.72405
0.137 -0.00320624 0.00398196 -0.00848749 -0.382407 -0.18526 9.8946
0.138 0.0143059 0.0116522 -0.00414911 -0.220223 -0.0176138 9.66705
0.139 -0.0219707 -0.00325811 0.00777145 -0.156833 -0.155265 9.85265
0.14 -0.01406 0.0321267 0.0113858 -0.206751 -0.153695 9.91468
0.141 0.00325118 0.0218372 -0.00591182 -0.359625 0.0893718 10.0861
0.142 -0.0106423 0.0103467 0.0056428 -0.0360541 -0.146936 9.83738
0.143 0.00696554 0.0169975 0.0104729 -0.369471 -0.236329 9.97015
0.144 -0.00159851 -0.00888832 0.00493981 -0.172192 -0.0395061 9.7739
0.145 0.0299132 0.00182752 -0.0269159 -0.123631 -0.302222 9.82088
0.146 -0.00973395 0.0113893 0.0104958 -0.327595 -0.279912 9.91814
0.147 0.00811167 0.0104461 0.0118095 -0.411642 -0.385953 9.69574
0.148 -0.0171677 0.00564579 -0.00944468 -0.322349 -0.173975 9.70147
0.149 0.0096584 0.0189028 -0.00197516 -0.377396 -0.427137 9.76932
0.15 0.000211434 0.000503004 -0.00400116 -0.246338 -0.168175 9.73937
0.151 0.0129498 -0.00315425 -0.00938978 -0.461152 -0.0230724 9.83488
0.152 -0.0160485 -0.00445579 0.00423121 -0.328518 -0.0959723 9.76666
0.153 -0.00610627 -0.00900046 -0.0176064 -0.211224 -0.292069 9.83228
0.154 0.00370248 0.00926748 -0.00952266 -0.329452 -0.0271686 9.95693
0.155 -0.00017101 -0.00507545 -0.00395637 -0.253468 -0.161817 9.97601
0.156 0.00438214 0.0095989 0.0271145 -0.292916 -0.162662 9.78411
0.157 -0.0197588 -0.00605065 -0.00331592 -0.203524 -0.218679 9.9507
0.158 0.0128502 0.0115428 -0.0136216 -0.0506501 -0.238016 9.9095
0.159 -0.000902805 0.0167656 -0.011511 -0.269836 0.000607793 9.87204
0.16 0.0168741 0.0044451 -0.0131597 -0.149518 -0.238328 9.88881
0.161 0.00916507 0.000765424 0.0108369 -0.160717 -0.024438 10.0406
0.162 -0.01407 0.00449794 -0.0053093 -0.296291 -0.0606092 9.97232
0.163 -0.00217555 -0.00922493 -0.000859837 -0.0999232 0.0222727 9.7858
0.164 0.0045241 0.0110922 -0.00624064 -0.46135 -0.357774 9.65268
0.165 -0.00276304 0.00143419 -0.0130098 -0.273207 -0.182846 9.63786
0.166 0.00993183 0.0141835 -0.00380528 -0.158003 -0.283922 9.76254
0.167 0.00419373 0.00564179 -0.0156244 -0.221813 -0.156934 9.87697
0.168 -0.00455015 0.0226141 0.00177529 -0.129807 -0.197989 9.70119
0.169 0.00365928 -0.0117112 0.00877682 -0.281224 -0.445915 10.0064
0.17 0.0056274 0.000219453 0.00793759 -0.0897003 -0.165449 9.84254
0.171 -0.0104269 0.000795363 0.00888024 -0.0251177 -0.00747265 9.6868
0.172 0.0028429 0.0335898 0.00080393 -0.209478 -0.102529 9.76062
0.173 -0.0119674 0.00142018 0.00509612 -0.23227 -0.0142393 10.0253
0.174 0.00262535 0.0022069 -0.00376134 -0.0711264 0.0924252 10.1416
0.175 -0.0159706 0.0222755 -0.0158554 -0.139628 -0.166858 9.79028
0.176 -0.012042 0.0134395 -0.00528064 -0.436634 -0.0265967 9.85584
0.177 -0.00874709 0.018924 0.0113275 -0.372396 -0.0683639 9.62768
0.178 0.0141792 0.00707143 -0.00544299 -0.0779925 -0.275316 9.99676
0.179 -0.00969319 0.0100162 0.00701181 -0.307247 -0.334224 9.74937
0.18 0.00672739 0.00876077 -0.00213618 -0.46964 -0.134635 9.93191
0.181 -0.00840198 -0.0132486 -0.00725816 -0.202674 -0.243782 9.89571
0.182 -0.0111863 0.0062422 0.000987902 -0.380869 -0.0803902 9.91379
0.183 0.007617 0.00789502 0.00943517 -0.445132 -0.0408901 9.86466
0.184 -0.0003307 0.00470137 0.00492898 -0.325859 -0.193156 9.95662
0.185 0.00321091 -0.000526658 0.0059729 -0.19585 -0.335499 9.99885
0.186 -0.00770785 0.00483583 0.0033373 -0.218982 -0.129727 9.74734
0.187 -0.00258301 0.00996448 -0.00280626 -0.225973 -0.346935 9.88704
0.188 -0.00915466 0.00814491 0.00561958 -0.307516 -0.0104615 9.74528
0.189 0.00778449 0.00335549 -0.0030477 -0.322807 -0.481279 9.85029
0.19 -0.00958625 0.0035693 0.00101646 -0.357368 -0.0289088 10.094
0.191 0.00749196 0.0100397 -0.0108827 -0.340804 -0.247077 9.56236
0.192 -0.0113139 -0.00679437 -0.00358885 -0.169759 -0.261971 9.72784
0.193 -0.00937757 -0.0204711 0.014201 -0.252881 -0.197355 9.75461
0.194 -0.000902823 0.00420015 -0.000372341 -0.541319 -0.0559749 9.6883
0.195 0.00112585 0.000562906 0.00076027 -0.261723 -0.294903 9.89503
0.196 -0.00862848 0.000161993 0.0232658 -0.340003 -0.00978914 9.90318
0.197 -0.0030109 0.00263394 -0.0062304 -0.285561 -0.265218 9.83478
0.198 -0.00470782 0.00166637 0.0163135 -0.232082 -0.194398 9.86286
0.199 -0.0161722 0.00785722 0.00811025 -0.340063 -0.178431 9.87432
0.2 -0.00631847 0.00413891 -0.00655866 -0.117504 -0.3431 9.78609
0.201 -0.00823218 -0.0106445 0.00340923 -0.134007 -0.265117 9.7709
0.202 0.009721 0.00203045 -0.0106903 -0.32245 -0.307672 9.7435
0.203 0.00953164 -0.00322081 0.00331531 -0.0473282 -0.169779 9.75172
0.204 -0.000964338 -0.0151655 -0.000325787 -0.198635 -0.165222 9.92214
0.205 -0.00437149 0.00908618 0.0129102 -0.359428 -0.242214 9.8321
0.206 -0.00590888 -0.00624413 0.00683426 -0.304377 -0.230032 9.73546
0.207 0.000430259 0.0123005 -0.0139697 -0.159198 -0.0766727 9.95266
0.208 -0.00439208 0.0318294 -6.39361e-05 -0.00714314 -0.326086 9.87183
0.209 -0.00684043 0.00382566 -0.00399506 -0.0309007 -0.229515 9.9168
0.21 -0.00298222 0.00712412 -0.0136387 -0.115238 -0.393881 9.95565
0.211 0.00838975 0.0163417 -0.00671287 -0.461568 -0.542915 9.67901
0.212 0.00815508 0.0173909 -0.00578632 -0.30531 -0.320655 9.72638
0.213 0.00246265 0.000161382 -0.0189107 -0.336382 -0.174323 9.85664
0.214 -0.0195678 0.011942 -0.0282231 -0.186618 -0.185757 10.0446
0.215 0.00454285 0.0281977 0.00674757 -0.12924 -0.33225 9.93047
0.216 0.00803634 0.00293448 0.0134631 -0.114679 -0.116208 9.97972
0.217 0.00650286 -0.0176641 0.00809111 -0.167829 -0.143857 9.90917
0.218 -0.0171799 0.0145462 -0.00144311 -0.344046 -0.0175694 9.92802
0.219 0.00333562 0.00475849 0.0250468 -0.208302 -0.141306 9.94935
0.22 0.00919621 0.00654142 -0.00299172 -0.0456483 -0.303796 9.85007
0.221 0.00567225 -0.0148851 0.00263658 -0.185759 -0.106571 9.83181
0.222 -0.00458814 -0.0035147 -0.00994459 -0.335925 -0.250999 9.64914
0.223 0.00595075 0.0148504 -0.013144 -0.215318 -0.0893846 10.0063
0.224 0.00106068 0.0174164 0.00068061 -0.329251 -0.043537 9.54442
0.225 -0.0172741 0.0144443 0.0128028 -0.29027 -0.200417 9.91281
0.226 0.00531874 0.0316598 -0.00417523 -0.276273 -0.103356 10.0212
0.227 -0.00444037 -0.00670756 0.00511794 -0.319719 -0.299215 9.92151
0.228 -0.0138031 -0.0110155 -0.00993069 -0.0217585 -0.0975291 9.97449
0.229 0.00497312 0.0183884 0.00893927 -0.272908 -0.0541168 10.011
0.23 0.0117901 0.0100147 0.00868126 -0.106244 -0.151322 9.73871
0.233 -0.00555928 -0.000278634 -0.00402694 -0.314408 -0.176249 10.0286
0.235 -0.00684756 0.00307035 0.0005213 -0.491649 -0.301306 9.93029
0.236 0.0195897 0.00972267 0.00482687 -0.143009 0.0316711 9.73464
0.237 0.005217 0.010995 0.0053467 -0.202735 -0.319621 9.84427
0.238 -0.00803436 0.00843734 -0.00122338 -0.166977 -0.224165 9.73535
0.239 0.0116643 0.00349723 0.00107489 -0.303993 -0.129823 9.98629
0.24 0.0221981 -0.0066516 0.00927736 -0.159525 -0.0901532 9.78616
0.241 0.0120989 -0.00271223 0.00985515 -0.18856 -0.0888948 9.89321
0.242 0.00550818 0.00746546 -0.0104988 -0.341603 -0.114764 9.90468
0.248 0.00187585 -8.0702e-05 0.000539462 -0.0445792 -0.152625 9.84747
0.249 -0.00441831 -0.00995411 0.0202872 -0.324027 -0.22298 9.89006
0.25 -0.000260821 -0.00162803 -0.00188637 -0.274868 -0.17553 9.90927
0.251 0.0039672 0.00964453 -0.00722572 -0.325511 -0.105143 9.73687
0.252 -0.00250611 0.00527924 -0.0113348 -0.244221 -0.331504 9.85168
0.253 -0.0224995 0.020078 0.00879955 -0.103897 -0.399685 10.0314
0.254 -0.0110655 0.0079844 -0.022326 -0.104601 -0.265773 9.76944
0.255 0.00403665 -0.0080984 0.0203019 -0.353106 -0.211684 9.8455
0.256 -0.00186988 0.00245178 0.0118966 -0.115924 -0.246 9.75409
0.257 -0.00617514 -0.00799025 0.000985855 -0.0919105 -0.349854 10.0097
0.258 -0.00190653 0.0154421 -0.00658907 -0.257101 -0.429451 9.77887
0.259 -0.0013935 0.00905369 0.0154544 -0.230264 -0.111074 9.92913
0.26 0.000721494 0.00448067 0.00408876 -0.274454 -0.339469 9.78423
0.261 0.0121134 -0.000650208 0.00026035 -0.262803 -0.202308 9.81148
0.262 0.00432831 -0.00148585 0.00878076 -0.190044 -0.370995 9.95543
0.263 0.0126974 0.000841091 0.00589668 -0.180918 -0.177029 9.66219
0.264 -0.00417531 -0.0021772 -0.0122616 -0.116477 -0.122641 9.90433
0.265 -0.0104325 0.00592313 -0.00285007 -0.204055 -0.189678 9.8148
0.266 0.0110055 -0.00136462 -0.00911626 -0.185765 -0.184503 9.88035
0.267 -0.00346837 0.0240176 -0.0052291 -0.140783 0.0491898 9.76859
0.268 0.0119009 0.00387551 0.00302574 -0.176401 -0.452743 9.96731
0.269 -0.00334895 0.0116918 -0.0111233 -0.144751 -0.343658 9.77705
0.27 -0.00162393 0.00434417 -0.00176841 -0.138541 -0.216352 10.0322
0.271 -0.00904478 0.0171363 -0.00823187 -0.494889 -0.23114 9.95184
0.272 0.0154677 0.0187961 0.00345271 -0.213911 -0.304597 9.58138
0.273 -0.0168383 0.0054701 0.01036 -0.418675 -0.119045 9.76947
0.274 -0.0164098 -0.00972213 0.0193079 -0.131069 -0.159348 9.74599
0.275 0.0108784 0.000286303 -0.0225442 -0.306753 -0.23625 9.81961
0.276 -0.00280633 0.0134837 -0.0268015 -0.247704 -0.0579047 9.9434
0.277 0.0045641 0.00706292 0.00209957 -0.370238 -0.146984 9.9119
0.278 -7.11472e-05 -0.0141689 0.00420044 -0.385646 -0.306887 9.55007
0.279 0.0135822 0.00754185 -0.0108385 -0.20011 -0.0704826 9.73777
0.28 -0.00414526 -0.00450508 0.0124517 -0.282827 0.220216 9.90298
0.281 0.000650262 0.00201053 -0.00182922 -0.353683 -0.484555 9.90339
0.282 0.0135994 0.00424118 -0.0028451 -0.402011 -0.282928 10.0174
0.283 -0.0159679 -0.00452222 -0.0113811 -0.134633 -0.366723 9.82041
0.284 0.00588431 -0.013888 -0.00242678 -0.392362 -0.106549 10.1242
0.285 0.00528443 -0.00314199 -0.00692844 -0.0616291 -0.345064 10.0794
0.286 0.0162847 0.0126406 0.0084971 -0.077068 -0.0140791 9.93823
0.287 -0.0219005 0.00429503 0.0118375 -0.294938 -0.332201 9.98298
0.288 0.0128489 0.00944906 -0.005212 -0.115403 -0.0649692 9.61278
0.289 -0.0435845 0.0146304 0.00210073 -0.160642 -0.274783 9.96911
0.29 0.00516786 0.00741394 0.00769969 -0.156127 -0.179098 9.94425
0.291 -0.00464279 -0.00689803 -0.000341897 -0.453604 -0.0359865 9.94314
0.292 -0.0121474 -0.000750909 0.0142612 -0.0562266 -0.228946 9.94827
0.293 0.000887412 0.00509451 -0.00644992 -0.240702 -0.138798 9.90488
0.294 0.00154143 0.00286872 0.00189509 -0.276935 -0.100839 9.91006
0.295 -0.0184982 0.0174498 -0.00276137 -0.107224 -0.193684 9.84447
0.296 0.0117333 0.00614774 0.0071345 -0.217464 -0.0154719 9.92058
0.297 0.00309502 0.00593008 0.00740246 -0.342718 -0.10543 9.78532
0.298 -0.0055771 0.0145366 -0.0228705 -0.325246 -0.291061 10.0476
0.299 0.0104342 -0.000432677 -0.000749374 -0.445517 -0.271303 9.71013
0.3 0.00129911 0.00162774 0.00715965 -0.212632 -0.260311 9.84845
0.301 0.00783617 0.00307512 0.00258918 -0.30171 -0.3686 9.95213
0.302 -0.00895015 0.0131839 -0.0118572 -0.32246 -0.0875009 9.89457
0.303 0.00182406 0.00563974 0.00320413 -0.0727106 0.060467 9.80269
0.304 -0.000134351 0.00378829 0.0158176 -0.422926 -0.107099 9.81988
0.305 0.00174517 0.0148728 0.0148402 -0.272596 -0.066959 10.0065
0.306 -0.00595243 0.0279174 -0.00176544 -0.320432 0.0740703 9.8159
0.307 -0.0098966 0.0101298 0.0235909 -0.21089 -0.165071 9.93397
0.308 -0.00249578 0.00639512 0.0143996 -0.0302236 -0.0455333 9.94269
0.309 0.00713238 0.0106653 0.00540076 -0.117325 0.00838764 9.98536
0.31 0.00181864 0.0102152 0.00619935 -0.465788 -0.325298 9.80322
0.311 -0.00418232 -0.00466846 -0.00188091 -0.242218 -0.118357 10.1549
0.312 0.0161488 0.00534987 0.013699 -0.359467 -0.245315 9.76914
0.313 0.00610398 0.00508569 0.00408795 -0.276327 -0.184012 9.75894
0.314 -0.00784977 -0.00132192 0.0170039 -0.290439 -0.0656752 9.59667
0.315 -8.15831e-05 -0.0103651 0.0151697 -0.206073 -0.119778 10.0924
0.316 0.00370639 -0.00207371 -0.00118297 -0.173967 -0.231525 9.69937
0.317 -0.0094516 0.00890907 0.00168738 -0.162677 -0.0574533 9.83675
0.318 0.0200821 0.0160025 0.00258799 -0.304482 -0.379507 9.80499
0.319 0.0190137 0.00641398 3.74656e-05 -0.415356 -0.214657 10.0961
0.32 0.00345327 0.00760223 0.00882453 -0.110407 -0.345927 10.0212
0.321 0.000521484 0.0166451 0.00552956 -0.0843465 -0.163164 9.84287
0.322 -0.0180667 0.00879985 0.0218571 -0.193394 -0.106141 9.66693
0.323 0.0119154 0.0165304 0.00317081 -0.148767 -0.0580871 9.77106
0.324 -0.0202312 0.00805724 0.00378147 -0.251749 -0.207006 9.92232
0.325 -0.0103462 7.59606e-05 -0.0150466 -0.352727 -0.160756 9.789
0.326 0.00520025 -0.0019485 0.00700927 -0.191142 -0.196616 9.81703
0.327 0.00057686 -0.000506995 -0.0131089 -0.315034 -0.239534 9.68657
0.328 -0.0160743 0.0133554 -0.0139536 -0.161277 0.00365028 9.86751
0.329 -0.0188613 0.00865035 -0.00343806 -0.287118 -0.28082 10.0906
0.33 -0.00260132 0.0021458 -0.0130005 -0.411143 -0.255924 9.82765
0.331 -0.0117453 0.0155422 0.00587518 -0.126142 -0.148401 10.0036
0.332 -0.0131876 -0.0153914 -0.0108309 -0.320922 -0.0331416 10.0778
0.333 0.0136151 0.00450621 -0.00617585 -0.026962 -0.260176 9.99971
0.334 -0.0120792 0.0117037 -0.00383322 -0.438218 -0.0360557 9.83945
0.335 -0.00174271 0.00899338 0.00613197 -0.389689 -0.055188 9.94978
0.336 0.0122556 0.0125122 -0.00394871 -0.231242 0.167992 9.67067
0.337 -0.00726852 0.0147895 0.00470493 -0.180741 0.0426614 10.0454
0.338 -0.00448615 -0.00579462 0.00270451 -0.306328 -0.379901 10.073
0.339 0.00737984 -0.00601567 -0.0089475 -0.316987 -0.072709 9.65934
0.34 0.00573049 0.013477 -0.0231401 -0.178644 -0.33655 9.84133
0.341 0.00316183 0.00482838 0.0128927 -0.281876 -0.261335 9.83351
0.342 0.00102451 0.012918 -0.00493876 -0.162267 -0.187154 10.023
0.343 0.00196047 -0.0187122 0.00492555 -0.0973823 -0.126036 10.0506
0.344 0.00401584 0.0144769 0.00440383 -0.359592 -0.0959467 9.97134
0.345 0.00289346 0.010189 -0.00854061 -0.241598 -0.131596 9.79619
0.346 -0.00378997 0.0187154 0.0150582 -0.218864 -0.139625 9.9519
0.347 -0.00253974 0.00520722 -0.00116826 -0.339999 -0.30328 9.92816
0.348 0.0148436 0.00282836 -0.0159556 -0.470234 -0.0997669 9.87415
0.35 0.00704193 0.00515325 -0.0114317 -0.253569 -0.231743 9.76874
0.351 0.0218366 0.0105627 0.0165677 -0.256355 -0.260582 9.95201
0.352 -0.0118691 0.0261193 -0.00122425 -0.349082 -0.101152 9.81107
0.354 -0.0139537 0.0256431 0.0117787 -0.0193593 -0.0970669 9.93487
0.355 -0.00645117 0.00151248 -0.00456915 -0.237771 -0.290347 9.61722
0.356 0.0158852 0.00576516 0.00582122 -0.187636 -0.200547 9.95691
0.357 0.00228521 0.00445774 -0.00256878 -0.29915 -0.0723613 9.90982
0.358 -0.00285768 -0.00380525 0.00634317 -0.151105 -0.196551 9.83945
0.359 0.0129551 -0.00135125 -0.00774546 -0.0358237 -0.195117 9.7794
0.36 0.000174994 0.0229125 -0.0218817 -0.285428 -0.100974 9.91732
0.363 -0.00781762 -0.0105942 0.015973 -0.183712 -0.124455 9.93627
0.364 0.0260015 0.0158595 0.00171838 -0.0952779 -0.28632 9.80296
0.368 0.0137897 0.014911 -0.0121414 -0.218639 -0.120414 9.77541
0.369 -0.00721967 -0.00265879 0.00335179 -0.273728 -0.138985 9.82298
0.37 -0.00209342 0.00871688 -0.0160413 -0.114167 -0.339564 9.92283
0.371 -0.00295428 0.0209534 0.00965496 -0.225476 -0.0763336 9.8361
0.372 -0.00614192 -0.0058855 0.0129404 -0.200118 -0.138285 9.66681
0.373 0.00794736 -0.00234735 -0.013524 -0.170701 -0.0551329 10.0174
0.374 -0.00240381 0.0077129 -0.00202722 -0.129542 0.0177025 9.61254
0.375 -0.0183634 0.0169091 0.00867952 -0.264657 -0.165636 9.83805
0.376 0.00342576 0.0091417 -0.0127029 -0.271927 -0.123736 9.72694
0.377 -0.011435 -0.00136156 0.0103505 -0.22178 -0.184479 9.91968
0.378 0.00891181 0.0126991 -0.00800215 -0.205805 0.00916984 9.77877
0.379 0.0168846 0.000492573 -0.0115805 -0.137486 -0.393083 9.80814
0.38 -0.0164608 0.0213576 0.00515817 -0.269581 -0.00203174 9.93364
0.381 -0.0140245 0.00620776 0.0217279 -0.247294 -0.0189158 10.0531
0.382 -0.00917295 0.00467136 -0.0098332 -0.186619 -0.188162 10.0169
0.383 -0.0345044 -0.000761673 0.0111163 -0.26206 -0.246563 9.9553
0.384 0.0015613 0.00532496 -0.00783202 -0.171934 -0.106469 9.88474
0.385 -0.0265881 0.00418609 -0.000628079 -0.151661 -0.370109 9.89374
0.386 -0.00112155 0.00902646 -0.0115745 -0.257029 -0.0402406 9.83456
0.387 0.00936582 0.00322665 0.015405 -0.420958 -0.104391 9.68894
0.388 0.0156172 0.0169133 0.00128001 -0.445315 -0.0861989 9.796
0.389 -0.0187633 0.00777336 0.00436618 -0.00467882 -0.0645189 9.73147
0.39 -0.0147481 0.00569388 0.0226942 -0.176755 -0.0808549 9.78707
0.391 0.0155995 -0.00542748 -0.00381327 -0.485244 -0.275174 9.85186
0.392 -0.00661068 0.0111162 -0.0051049 -0.331312 -0.0472638 9.74454
0.393 -0.0134699 -0.00480748 -0.00172501 -0.0570059 -0.0526934 9.99508
0.394 0.000861138 0.0156114 -0.0117422 -0.103065 -0.260196 9.8832
0.395 0.0230761 0.0146094 -0.00424977 -0.233557 -0.44993 9.84994
0.396 0.0112833 0.000822373 0.0172229 -0.264625 -0.0799266 9.85253
0.397 -0.00687698 0.00819855 0.00830561 -0.298314 -0.232103 9.82145
0.398 0.000214508 0.00176734 0.00306119 -0.444904 -0.210183 9.93251
0.399 0.00172238 -0.00929643 -0.0106427 -0.42739 -0.411781 9.94203
0.4 0.00588627 0.0144214 -0.0200042 -0.31832 0.0612741 9.69493
0.401 0.00635757 0.000966684 -0.00353837 -0.291507 -0.0533352 9.64745
0.402 -0.0214813 0.0150174 0.00223745 -0.164655 -0.105833 9.91712
0.403 0.00505511 -0.000360235 -0.012661 -0.108333 -0.094007 9.82149
0.404 0.000347136 0.0256222 -0.00698375 -0.109398 -0.141669 9.86101
0.405 0.0109042 0.0151025 -0.00316352 -0.124575 -0.250468 9.83535
0.406 -0.00319133 0.00430417 0.0120058 -0.511119 -0.074148 9.93728
0.407 0.00135923 -0.00694615 -0.0174547 -0.108156 -0.0823557 9.88646
0.408 -0.0112763 -0.00149584 0.00512063 -0.421524 -0.0827977 9.92529
0.409 -0.0173425 -0.000142741 -0.00291354 -0.258363 -0.0755302 9.92169
0.41 -0.0086321 0.00739584 0.000247866 -0.125227 -0.14265 9.94924
0.411 -0.00712322 0.018182 -0.0221219 -0.379847 -0.363581 9.82906
0.412 -0.00192302 0.0125293 0.00239548 -0.437097 -0.0500162 10.0801
0.413 0.00455138 -0.00869048 -0.0180919 -0.265294 -0.251892 9.76021
0.414 0.00756471 0.00621547 -0.0103726 -0.380427 -0.0797247 9.98085
0.415 -0.00353612 -0.0200358 0.001617 -0.0666457 -0.123136 9.96021
0.416 -0.00365166 0.0262224 -0.00049741 -0.160464 -0.22152 9.6613
0.417 0.00167126 -0.017993 0.00699113 -0.519624 -0.18984 9.828
0.418 0.00205603 -0.00791903 -0.000722856 -0.147199 -0.105735 9.72127
0.419 -0.0101855 0.00461779 -0.00860132 -0.314492 -0.0562271 9.7735
0.42 -0.0040916 -0.0022072 -0.0117592 -0.326878 -0.265894 9.893
0.421 0.00873195 -0.0086598 -0.00623419 -0.280069 -0.0286796 9.60017
0.422 0.00282936 0.0107034 -0.00338431 -0.15728 -0.111961 9.90938
0.423 0.0101219 0.00590135 0.00621129 -0.260515 -0.221468 9.76923
0.424 -0.00869687 0.00303589 0.0113724 -0.217289 -0.0879886 9.63056
0.425 -0.0201482 0.00615304 -0.00398363 -0.119351 -0.498992 10.1164
0.426 0.0023181 0.0111373 -0.00854483 -0.00385391 -0.0924569 9.86835
0.427 -0.00526958 0.0122011 -0.00599 -0.122505 -0.123181 9.91778
0.428 -0.0151167 0.0135542 -0.00838707 -0.15924 -0.273523 9.73922
0.429 -0.00348728 0.0209545 0.0105785 -0.353876 -0.263047 9.96192
0.43 0.00640376 0.0141169 0.00755646 -0.24965 -0.101648 9.67682
0.431 0.0126539 0.00442308 0.0161386 -0.298697 -0.256009 9.65569
0.432 0.00200151 -0.00756888 0.00401903 -0.183706 -0.0652559 9.66995
0.433 -0.000444949 -0.00944611 -0.0104575 -0.282733 -0.202152 10.0312
0.434 0.0139145 0.0160035 -0.00409943 -0.161506 -0.159283 10.0044
0.435 -0.0102254 0.0011282 0.00439772 -0.35976 -0.0645637 9.58201
0.436 -0.0032784 0.0194035 0.00935275 -0.0886888 -0.0208457 9.86426
0.437 0.00844521 -0.000812208 0.00202358 -0.329742 -0.103865 10.0231
0.438 0.0105119 0.0135884 -0.0187441 -0.338151 -0.0969602 9.83326
0.439 -0.0137619 0.0214334 0.00606754 -0.338562 -0.101643 9.9362
0.44 0.00054073 0.0213222 -0.0119168 0.136963 -0.304712 9.92859
0.441 0.00182359 0.00822428 0.0119826 -0.256073 -0.131666 9.76217
0.442 -0.00605131 0.000300117 0.0174389 -0.182303 -0.188409 9.91555
0.443 -0.000852556 0.00121598 0.00863149 -0.331995 -0.0486293 9.88129
0.444 -0.00671759 0.00757383 -7.81456e-05 -0.2594 -0.0743052 9.81555
0.445 0.0274016 -0.00258921 -0.0158302 -0.406778 -0.330765 9.86174
0.446 -0.00539724 -0.00130597 0.009161 -0.302223 0.0301616 9.82639
0.447 -0.0013748 -0.00972514 0.00107584 -0.305766 -0.254804 9.86679
0.448 0.00737247 0.0141064 0.0136466 -0.30272 -0.28966 9.91474
0.449 0.00697514 -0.015402 0.00471685 0.00032164 -0.172906 9.93305
0.45 -0.00553761 0.0100333 -0.00528394 -0.0522226 -0.279249 9.70692
0.451 -0.000272812 0.0149165 0.0110431 0.107762 -0.244487 9.94581
0.452 0.0036964 0.000440265 0.0251934 -0.263695 -0.239745 10.0603
0.453 -0.0021752 -0.00269946 -0.010777 -0.282364 -0.245557 10.0064
0.454 -0.0043033 -0.000333057 0.000300538 -0.232895 0.00783737 10.1026
0.455 0.0074946 0.00718726 -0.0110241 0.03456 0.15205 9.89425
0.456 0.00141161 0.0166756 -0.00841059 -0.37317 -0.0868513 9.6185
0.457 -0.0119675 5.66529e-05 -0.00634928 -0.0675557 -0.178489 9.88852
0.458 0.00692078 0.00469789 -0.0140654 -0.255804 0.157028 9.83974
0.459 0.0201119 0.0020458 0.0144096 -0.261339 -0.0777171 9.83935
0.46 0.00493651 -0.0123294 0.000753728 -0.292498 -0.0374704 9.80838
0.461 -0.0135728 -0.00169885 0.000280657 -0.252732 -0.102309 9.8476
0.462 0.0111383 0.0130254 0.00688784 -0.167772 -0.180958 9.88207
0.463 0.0209956 0.0198758 0.000850378 -0.115653 -0.0179083 9.82466
0.464 -0.00720247 -0.00200104 -0.00364791 -0.228285 -0.225792 9.77834
0.465 0.00295514 -0.00193755 -0.0114156 -0.17129 -0.259325 9.7821
0.466 -0.00068303 -0.00344096 -0.00859252 -0.508435 -0.0943087 9.79915
0.467 -0.02501 0.0183917 0.0040409 -0.215107 -0.170064 10.0878
0.468 -0.0113924 0.00546555 -0.0120572 -0.0535126 -0.163294 10.0686
0.469 0.00965379 0.0114279 0.00444952 -0.335352 -0.168857 9.69406
0.47 0.00131517 -0.000601356 0.00501257 -0.128197 0.0426851 9.86844
0.471 0.00624079 0.000212759 0.00797765 -0.297021 -0.0567289 9.80523
0.472 0.00227651 -0.00328229 -0.00758246 -0.0927527 -0.193288 9.95555
0.473 -0.00720609 0.0181259 0.00246734 -0.28934 -0.17478 9.87014
0.474 -0.00147587 0.0116616 0.0143283 -0.186949 -0.378014 9.83281
0.475 -0.00712031 -0.00971613 -0.0136796 -0.34258 0.0128059 9.80632
0.476 0.0100339 0.00987464 -0.0395015 -0.274191 -0.367069 9.86721
0.477 0.00163549 -0.000337263 0.00529267 -0.145832 -0.277977 9.78717
0.478 -0.0170026 0.0075104 -0.012715 -0.0723137 0.071302 9.83398
0.479 0.00145659 0.027009 0.0117288 -0.199163 0.0324487 9.75756
0.48 -0.00358595 0.00893117 0.0145559 -0.273061 -0.241505 9.87148
0.481 0.00366796 0.00131802 -0.0046176 -0.084549 -0.307294 9.74195
0.482 -0.00609006 0.00300103 0.00400793 -0.262192 -0.305746 9.9117
0.483 0.016596 -0.0126143 0.00645955 -0.175585 -0.188326 9.88364
0.484 0.00369278 0.00808707 -0.0018421 -0.0287211 0.0400801 9.68594
0.485 0.014508 0.0107829 -0.00290817 -0.121978 -0.0186285 9.8952
0.486 -0.012711 -0.012536 -0.000681281 -0.175731 -0.163971 9.98342
0.487 -0.000569928 0.0107603 0.0105755 -0.226868 -0.0837483 9.67976
0.488 0.0158293 0.00550041 -0.0124308 -0.256662 0.00380573 9.93319
0.489 0.0114888 0.00628793 -0.00837714 -0.330005 0.0621038 9.91999
0.49 -0.0112028 0.0122196 -0.0118973 -0.310824 -0.0724898 9.73596
0.491 -0.00386687 -0.00557217 -0.0162818 -0.197286 -0.292993 9.84939
0.492 -0.0106533 0.0205393 0.00463775 -0.199753 -0.15591 10.066
0.493 -0.0036418 0.0164644 -0.0100405 -0.233342 -0.214979 9.75491
0.494 -0.00220731 0.0229128 -0.00197984 -0.197552 -0.387322 9.81406
0.495 -0.0139833 0.0146636 0.00515052 -0.0704253 0.0954295 9.92385
0.496 0.0208218 -0.00154661 0.00818177 -0.331691 0.0353979 9.67477
0.497 -0.000838116 0.0155193 -0.00205016 -0.338564 -0.089564 10.0638
0.498 0.00129977 0.00664569 0.00637313 -0.275827 -0.117301 9.83178
0.499 -0.0048684 0.00726834 -0.0147596 -0.317281 -0.0348399 9.86919
0.5 0.000646686 0.020503 -0.00584602 -0.416906 0.0318051 10.0252
0.501 -0.00964702 0.0141497 -0.00730277 -0.0620301 -0.142707 9.73293
0.502 0.00334328 -0.0109749 0.00431245 -0.296732 -0.117572 9.76536
0.503 0.000605645 0.0195562 -0.000109256 -0.186312 0.0349059 9.82152
0.504 0.0013967 0.0171283 -0.00254495 -0.20427 -0.392996 9.82006
0.505 -0.0149454 0.0230606 -0.00743297 -0.156092 0.113361 9.6582
0.506 0.0180461 0.0113782 0.00908583 -0.411161 -0.217248 9.87573
0.507 -0.0132508 0.0158635 -0.00417722 -0.245892 -0.0574818 10.179
0.508 -0.00644787 0.0201552 0.0113443 -0.135336 -0.0764024 9.89803
0.509 0.0149652 -0.00608318 -0.00596211 -0.227059 0.0509703 9.83842
0.51 0.0119126 0.0181703 0.0164528 -0.323859 -0.243419 9.90536
0.511 8.73129e-05 0.00183195 0.00136692 -0.184108 -0.119698 9.78729
0.512 -0.00153093 0.0362284 -0.00630088 -0.214483 -0.0431321 10.0371
0.513 -0.0181662 -0.00843783 -0.00174073 -0.132501 -0.230275 9.87373
0.514 0.00818843 0.000633037 -0.0104986 -0.326721 -0.207485 10.0003
0.515 -0.00596387 0.00353492 -0.0126817 -0.299599 -0.350027 9.79948
0.516 0.00982498 0.00726524 -0.00146179 -0.440391 -0.20949 10.0519
0.517 -0.00200695 -0.00719765 0.000581812 -0.211918 -0.0628206 10.0458
0.518 -0.00960078 0.0231037 0.00873261 -0.129496 -0.0898631 9.89172
0.519 -0.0029257 0.00671357 0.0108645 -0.441422 -0.179189 9.85741
0.52 0.0050954 -0.00539302 -0.000374415 -0.322156 -0.159306 9.85946
0.521 0.00172844 0.0203973 -0.00248422 -0.30609 -0.112215 10.02
0.522 -0.00358611 0.0130561 -0.00371269 -0.2563 -0.345238 9.94951
0.523 0.00925955 9.02774e-05 -0.000370121 -0.064149 -0.0131527 9.92259
0.524 -0.00247072 0.00908891 -0.0114067 -0.0788549 -0.041018 9.65024
0.525 -0.0186585 0.0186653 0.0223904 -0.242079 -0.289454 9.87926
0.526 0.014006 0.00955928 0.00609283 -0.336241 -0.316637 9.80379
0.527 0.0101315 0.0100768 -0.00148706 -0.0782878 -0.289325 9.94327
0.528 -0.0101077 -0.0163166 0.0118661 -0.217334 -0.205666 9.91845
0.529 -0.000589807 0.00232949 -0.00120605 -0.267147 -0.117237 9.82525
0.53 -0.00569401 0.00550209 -0.00188637 -0.132276 -0.3997 9.70722
0.531 -0.0161893 0.00253976 0.0133008 -0.131302 -0.0392409 9.83408
0.532 -0.00512827 0.00572989 -0.0112074 -0.0687576 -0.0311372 9.75645
0.533 0.013609 0.0165362 0.0104901 -0.251827 -0.240723 9.70691
0.538 -0.0200179 0.0169232 0.00549294 -0.210035 -0.323756 9.95956
0.539 0.00107899 0.0263306 -0.00248929 -0.351795 0.026214 9.9909
0.54 0.00298888 0.00265559 0.00921352 -0.274839 -0.257326 9.90506
0.541 -0.00871504 0.00761818 -0.00812065 -0.169597 -0.174206 9.8151
0.542 -0.0116776 0.0191991 0.0102706 -0.276124 -0.225457 9.83176
0.543 -0.0125913 -0.0227664 -0.0145906 -0.214405 -0.173751 10.085
0.544 -0.00604269 0.0159522 0.00143722 -0.134087 -0.226117 9.87026
0.545 0.00803985 0.0075091 0.00299629 -0.0016124 -0.104977 9.83528
0.546 -0.0152706 0.000706678 0.0050519 -0.301911 -0.369731 9.69483
0.547 -0.00136096 0.0198645 0.00152554 -0.205828 0.0192541 9.91636
0.548 -0.0181224 0.0162592 0.00311215 -0.214242 -0.0615291 9.94696
0.549 0.0119746 0.00747771 -0.0128703 -0.066993 -0.137355 9.80849
0.55 -0.0135699 0.0140993 -0.00689382 -0.280355 -0.0298217 9.89878
0.551 -0.0103263 0.0108362 0.0305754 -0.284416 -0.110877 10.0315
0.552 -0.00848336 0.0264077 0.0203058 -0.315275 -0.238339 9.96435
0.553 -0.00358013 -0.00552207 0.00673288 -0.253409 -0.0246959 9.82635
0.554 -0.01276 0.00114369 0.00847885 -0.379963 -0.214791 9.8366
0.555 -0.00618663 0.0135359 0.0208442 -0.20368 -0.290164 9.70542
0.556 -0.00239268 0.0116017 0.0042825 -0.182091 -0.154656 9.76967
0.557 -0.00427315 0.00360394 0.00787957 -0.162731 -0.35923 9.95597
0.558 -0.0159841 0.00277098 0.00549429 -0.323787 -0.398561 9.62068
0.559 -0.00777892 0.0135072 -0.0126991 -0.215257 -0.053897 10.1929
0.56 0.00254143 0.0196588 -0.00268478 -0.184446 -0.291749 9.81637
0.561 0.0015199 0.038731 0.00390107 -0.0769866 -0.128727 9.92409
0.562 0.0210843 0.025298 -0.00332763 -0.115601 -0.202256 10.0115
0.563 -0.00347079 0.0109913 -0.0056399 -0.27844 -0.0925068 9.69062
0.564 -0.0105972 0.0155092 0.00714711 -0.325334 -0.199479 9.97911
0.565 0.00476367 0.024079 -0.00216584 -0.0928953 0.0408505 9.87485
0.566 0.00735386 0.0254306 0.0180325 -0.141921 -0.29168 9.88065
0.567 0.00750352 0.000815242 0.00467378 -0.408717 -0.217268 9.82648
0.568 0.0167246 0.00683406 -0.00405733 -0.240803 -0.0488908 9.76469
0.569 -0.0140802 -0.00904286 0.00468341 -0.187571 -0.221532 9.86574
0.57 0.00127298 -0.0039904 0.0193617 -0.255824 -0.165009 9.85351
0.571 0.0093972 0.00402903 0.0245653 -0.125569 -0.187303 9.66719
0.572 0.00976255 0.0130075 0.00500128 -0.402198 -0.262591 9.91769
0.573 -0.00292003 -0.00309142 0.00131499 -0.408739 -0.133279 9.85678
0.574 -0.0085268 0.0138613 0.00417607 -0.312532 -0.146321 10.0533
0.575 -0.000951802 -0.00740667 0.000920475 -0.234492 -0.186644 9.85589
0.576 -0.00102467 0.0183689 0.00111234 -0.294163 0.0413787 9.82321
0.577 0.00745098 0.0132637 -0.000228492 -0.313106 -0.142315 9.80765
0.578 -0.00142255 0.0119208 0.00772736 -0.0851207 -0.0061603 9.92317
0.579 -0.0154813 0.00670232 0.00477325 -0.432136 -0.300845 9.78653
0.58 -0.000576387 0.000974823 -0.00952688 -0.336977 -0.241873 9.83884
0.581 -0.0269927 -0.00618315 -0.0118481 -0.0527244 -0.169767 9.77329
0.582 -0.0173973 -0.00502935 -0.0135077 -0.339954 -0.206825 9.7867
0.583 0.0148847 0.000601031 0.0106219 -0.205552 -0.118715 9.90442
0.584 0.00139964 0.0115783 -0.00654924 -0.0734442 -0.212584 9.97497
0.585 -0.0073752 0.0244297 0.0047397 -0.375364 -0.189191 9.99559
0.586 0.000949389 -0.0125046 -0.00160707 -0.40194 -0.270536 9.48234
0.587 -0.00154596 0.0118119 0.0132249 -0.184042 -0.185755 9.69163
0.588 0.001924 -0.0074303 0.0114184 -0.332695 -0.209737 9.67584
0.589 0.00729109 -0.0157037 0.0156759 -0.293691 -0.325269 9.93368
0.59 -0.00340695 -0.0112315 -0.00577012 -0.232839 -0.201135 9.84271
0.591 -0.00233072 0.00558698 0.0048618 -0.130212 -0.286289 9.86181
0.592 -0.00292109 0.00295994 -0.00414538 -0.428914 -0.181189 10.1189
0.593 -0.0217635 0.00574476 0.0107177 -0.182671 -0.210311 9.7769
0.594 -0.020429 0.0248316 -0.0144957 -0.103928 -0.194969 10.1089
0.595 -0.0133913 0.00779362 -0.0047181 -0.11774 -0.146231 9.88844
0.596 -0.0241407 0.0127851 -0.00386056 -0.195903 -0.133453 9.68699
0.597 -0.00681283 0.0158161 -0.00700193 -0.0831992 -0.0402903 9.82757
0.601 -0.00993326 0.0128152 0.00602353 -0.496977 -0.107325 9.95384
0.602 -0.00769537 -0.00364411 -0.000607551 -0.402342 -0.362057 9.86875
0.603 -0.00536426 0.00413607 -0.00893982 -0.268664 -0.0928192 9.84844
0.604 -0.0297829 0.0162318 -0.0195181 -0.264837 0.0251239 9.68131
0.605 0.00296347 0.0172058 0.00907627 -0.204788 -0.109884 9.98957
0.606 -0.00433428 0.00561216 -0.019895 -0.159578 -0.0883888 9.73669
0.607 -0.00951396 -0.00219854 -0.00292413 -0.202255 -0.171811 9.98592
0.608 -0.0109438 0.00530166 -0.000994308 -0.202935 -0.269514 9.9125
0.609 0.0153427 0.00762653 -0.0208393 -0.1627 0.0267134 9.89807
0.61 0.0030133 0.00675882 0.0053585 -0.249528 -0.341826 9.59547
0.611 -0.0022033 -0.0240926 0.0221772 -0.17538 -0.182494 9.82392
0.612 -0.012933 0.0162741 -0.00376147 -0.216334 -0.131595 9.99095
0.613 -0.00740414 0.0187013 -0.0358339 -0.162925 -0.0899537 9.68914
0.614 -0.00281493 0.00716645 0.0224945 -0.193446 -0.327392 9.95781
0.615 -0.0053724 0.0172024 -0.0119077 -0.309861 -0.243595 9.85905
0.616 -0.00397184 -0.000173742 -0.00714343 -0.0789333 0.0445009 10.152
0.617 -0.0169892 -0.00850499 -0.00457195 -0.331447 -0.139815 9.93691
0.618 -0.00310384 0.0215185 -0.00718805 -0.315777 -0.252278 9.94901
0.619 0.00127042 0.0214018 -0.0111869 -0.129728 -0.113059 9.76493
0.62 0.00407775 0.0104419 -0.00706153 -0.246671 -0.265427 9.575
0.621 -0.0143293 0.01783 0.0112196 -0.384126 0.314196 9.91474
0.622 0.0086506 0.0131643 0.0153355 -0.311128 -0.0619816 9.62407
0.623 0.0144153 -0.00961215 0.0102789 -0.23268 -0.199075 9.88985
0.624 -0.00987057 0.0011817 0.00890657 -0.409124 -0.520153 9.82074
0.625 -0.015863 0.00362743 -0.00666286 -0.074305 -0.310978 9.7208
0.626 -0.0195777 -0.00677402 0.00747377 -0.291607 -0.0622927 9.99234
0.627 -0.022809 0.0127686 -0.0102205 -0.117314 -0.19641 9.8646
0.628 -0.00240606 -0.0224007 -0.0106377 -0.227699 -0.201972 9.77892
0.629 -0.0101109 -0.00172614 -0.00299374 -0.297333 -0.141989 9.84278
0.63 0.00527074 0.0186362 0.0161047 0.0535593 -0.294941 9.98824
0.631 0.00906427 0.00789737 0.0096433 -0.274082 -0.275415 10.0111
0.632 0.00782187 0.0281213 -0.0102311 -0.0911162 -0.271534 9.99787
0.633 -0.0096777 0.0067976 0.00752705 -0.0741771 -0.210518 9.81884
0.634 0.00974306 0.00893049 0.0121312 -0.265242 -0.148384 9.89702
0.635 0.0156626 -0.00321061 0.00658633 -0.367638 -0.167685 10.0742
0.636 -0.0115489 0.0106478 -0.012 -0.278329 -0.145825 9.95065
0.637 -0.00936096 -0.00192561 -0.00316451 -0.266294 -0.0629186 9.99245
0.638 0.00631854 0.00204724 0.0244982 -0.177563 -0.0130425 9.81782
0.639 -0.0182077 0.0164487 0.00063099 -0.453924 -0.200521 9.83275
0.64 0.0242275 -0.0039358 0.0181998 -0.458218 -0.0654549 9.90514
0.641 -0.000370431 -0.00299128 0.0124827 -0.0162367 -0.256641 9.88136
0.642 0.00524789 -0.00929308 -0.0183241 -0.143507 -0.197745 10.0477
0.643 0.00821023 0.0130563 -0.00717819 -0.166886 -0.168421 9.84961
0.644 -0.00570769 -0.0151629 0.0189436 -0.215836 -0.289476 9.6349
0.645 0.00385073 0.00251548 0.0146833 -0.126462 -0.192698 10.0139
0.646 -0.00723663 0.00478575 0.00222378 0.00840516 -0.0872423 9.82138
0.647 0.00163259 0.00197026 0.000330823 -0.309428 -0.233597 9.74021
0.648 -0.00465372 0.010101 -0.00797594 -0.0658793 0.205038 10.0205
0.649 0.00301621 0.000233637 0.00302831 -0.321451 -0.123347 9.90281
0.65 0.00231623 0.013927 0.00133198 -0.112196 -0.27812 9.94117
0.651 0.0010351 -0.00883163 0.00276639 -0.198466 -0.0432034 9.55388
0.652 0.0155417 0.00938982 -0.00664763 -0.177885 0.0495813 10.1094
0.653 -0.0118205 0.00546048 -0.00590898 -0.16075 0.00383367 9.90089
0.654 -0.00329714 0.00497338 -0.00605636 -0.333464 -0.114914 9.6058
0.655 -0.0111203 -0.0151125 0.00446491 -0.181824 -0.43336 10.0048
0.656 -0.00610319 0.0216164 0.0142607 -0.35036 -0.213587 10.0545
0.657 -0.0198849 0.011971 0.000190746 -0.217252 -0.292121 9.7821
0.658 0.00710644 0.00441426 0.000514827 -0.0483234 -0.34566 9.80319
0.659 -0.00335751 0.0153298 0.00615705 -0.51671 -0.293675 9.72426
0.66 -0.012572 0.0107068 -0.00436441 -0.16169 -0.216617 9.64399
0.661 0.00363869 0.0127066 0.00237297 -0.199724 0.0568161 9.8917
0.662 0.00397654 -0.021776 -0.00144272 -0.405882 -0.354701 9.88024
0.663 -0.0145744 -0.0145497 0.00181785 -0.166699 -0.185985 10.0295
0.664 -0.0049742 0.00149822 -0.00453042 -0.0784564 -0.0592624 9.81185
0.665 -0.00723481 0.0155287 0.00802072 -0.0699759 -0.0105974 9.97154
0.666 0.00160124 0.0156483 -0.00529528 -0.320752 -0.0573474 9.56629
0.667 -0.0134418 -0.00999945 -0.0093193 -0.438612 -0.0931677 10.228
0.669 -0.00775947 -0.0139275 0.00758324 -0.0730339 -0.0224294 9.77371
0.67 -0.00328762 0.00842585 -0.00427351 -0.251475 -0.185461 10.0243
0.671 -0.00938118 0.00744068 -0.0102484 0.0348502 0.105914 9.9954
0.672 -0.00825491 0.011015 0.00984892 -0.0273288 -0.160807 9.73333
0.673 -0.00843039 -0.000289059 -0.0144146 -0.167581 -0.0532981 10.0528
0.674 0.000390858 0.0331488 -0.00983372 -0.158304 -0.318997 9.73421
0.675 -0.00384833 0.00622749 -0.00397945 -0.218805 -0.0786744 9.77708
0.676 -0.0158442 0.0142969 0.000445757 -0.198959 -0.413174 10.1671
0.677 -0.000231452 0.0106094 -0.0251974 -0.345863 0.00583738 10.005
0.678 -0.0108924 0.0171093 0.003928 -0.1548 -0.161591 9.86482
0.679 0.0108705 0.000576441 -0.00885222 0.00201347 0.027922 9.94661
0.68 0.00605139 0.00494314 0.0176727 -0.100731 0.0997165 9.88503
0.681 0.000744434 0.0104806 0.0167158 -0.196296 -0.0178268 9.94254
0.682 0.00143472 0.0180292 -0.00145586 -0.129505 -0.133809 9.90351
0.683 -0.020081 -0.00328053 -0.0159346 -0.549061 -0.0341303 9.54055
0.684 -0.00851549 0.0305132 0.0170553 -0.381997 -0.258053 10.0216
0.685 -0.01212 -0.00816434 -0.0224071 -0.454099 -0.113683 9.83464
0.686 0.00802043 0.0019634 -0.0261844 -0.128035 -0.232273 9.63886
0.687 0.00291401 0.0104321 -0.00753044 -0.142751 -0.176432 9.57558
0.688 0.00221715 0.00650163 -0.00507362 -0.366105 -0.281022 10.034
0.699 -0.0144796 0.00368499 -0.00658472 -0.0282599 -0.349374 9.96601
0.7 0.00587316 0.00492969 0.0017098 -0.13002 -0.140316 10.0451
0.701 -0.0198707 -0.00453585 -0.000773044 -0.328479 -0.272566 9.77594
0.702 -0.00360124 0.000221937 0.0087631 -0.34056 -0.124296 9.67845
0.703 -0.00801503 0.00286445 -0.00513977 -0.28039 -0.0407251 9.9002
0.704 0.000956191 0.000284936 -0.0115649 -0.0718642 -0.0648025 9.80903
0.705 -0.00899833 0.023972 -0.0024363 -0.19013 -0.13361 9.97701
0.706 -0.0202634 0.0296081 -0.0118085 -0.317418 -0.101688 9.84301
0.707 -0.0120988 2.06755e-06 0.000185701 -0.257496 -0.185417 9.75793
0.708 -0.00736553 0.00808712 0.0102363 -0.30393 -0.0849073 9.79718
0.709 0.00309036 -0.00631498 0.00678118 -0.236682 -0.220001 9.78116
0.71 0.00527507 0.00123432 0.0145124 -0.43144 -0.00625712 9.5695
0.711 0.00167453 0.0177232 -0.0162332 -0.122622 -0.0894489 9.7191
0.712 0.00313816 0.0257238 -0.0158015 -0.176256 -0.235295 9.93163
0.713 -0.0043083 0.00287392 -0.00117997 -0.117046 -0.0470822 9.93402
0.714 -0.0024223 0.000971135 0.0105377 -0.45466 -0.367919 9.91022
0.715 0.0173545 0.0275426 0.00426562 -0.282975 -0.194658 10.0554
0.716 0.0145291 0.00422621 0.0117832 0.00712362 -0.207963 9.94781
0.717 0.0112034 0.00531486 0.00321938 -0.266915 -0.137032 9.50955
0.718 0.00656404 0.00181486 0.0166753 -0.227488 -0.409949 9.98768
0.719 -0.0110528 0.0266042 0.02019 -0.303735 -0.135042 9.93056
0.72 -0.0120766 -0.00575066 0.00873989 -0.207873 -0.132551 9.8994
0.721 -0.0143563 -0.00745946 0.0182928 -0.255064 0.126282 9.9182
0.722 0.0233735 -0.00849047 0.00049202 -0.228143 0.0500295 10.037
0.723 0.0107793 0.0189744 -0.00623463 -0.300651 -0.235907 9.91935
0.724 0.0161423 -0.00197565 -0.00530796 -0.395061 0.056595 9.72149
0.725 -0.0177377 0.0060749 -0.00852539 -0.122536 -0.160964 9.83946
0.726 0.00163664 0.0122658 -0.0105913 -0.286179 -0.401854 9.55556
0.727 -0.0248795 0.0025262 -0.00348997 -0.311233 -0.0224746 9.8091
0.728 0.00338749 0.0132048 0.0115755 -0.000438844 -0.243048 10.0225
0.729 -0.000637793 -0.00667753 0.00091679 -0.357737 -0.0208548 9.97382
0.731 -0.00206836 0.00754813 0.00281012 -0.238415 -0.20862 9.76129
0.732 -0.0138622 0.0119266 -0.00349304 0.00963314 -0.3012 9.78046
0.733 -0.00849624 0.00461083 -0.00509026 -0.146498 -0.143721 9.93415
0.734 -0.00487175 0.00192352 -0.0081507 -0.0533648 -0.0986314 9.87174
0.735 0.0115682 0.00445316 -0.00874305 -0.135923 -0.0506992 9.73855
0.736 0.0235452 0.0282803 0.00259708 -0.345434 -0.148647 9.81886
0.738 0.00663579 -0.00399489 -0.00167506 -0.295554 -0.38545 9.84642
0.739 -0.0272083 0.00854194 0.00329368 -0.257929 -0.383777 9.83746
0.74 -0.00536268 0.0274977 0.00350642 -0.136418 -0.185733 9.80786
0.741 0.0220214 -0.00266728 -0.0396634 -0.15254 -0.185055 9.90266
0.742 0.0162001 0.00950957 0.00648649 -0.0480089 -0.333672 10.0356
0.743 0.00717762 0.0044184 0.0106664 -0.363763 0.0172438 9.93963
0.744 0.00125177 0.0245965 0.00472494 -0.130577 -0.229859 9.78354
0.745 -0.00173754 0.00292778 0.00885926 -0.478361 -0.230153 9.79146
0.746 0.0219867 0.019134 -0.0128917 -0.366478 -0.274644 9.73078
0.747 0.00654386 0.00194395 0.0027064 -0.237527 -0.153604 9.85613
0.748 8.49425e-05 0.0196253 -0.0148914 -0.252213 0.00850622 9.90078
0.749 0.0110655 0.0187259 -0.00159412 -0.203089 -0.345253 9.86711
0.75 0.0234426 0.00215137 -0.00389075 -0.0421843 -0.191383 9.84088
0.751 -0.000268433 0.00824773 -0.00762282 -0.568331 -0.381069 9.71964
0.752 -0.00319118 0.0145472 -0.00730753 -0.276054 -0.00392333 9.95246
0.753 -0.0079137 0.0110292 0.00132724 -0.0361015 0.108929 9.81359
0.754 -0.00573207 0.00807603 -0.00995576 -0.186702 -0.0938843 10.0158
0.755 -0.0113638 -0.00942957 0.0103939 -0.0327144 -0.298707 9.85413
0.756 -0.008216 0.0153214 -0.0058612 -0.286492 0.0329051 10.0993
0.757 0.0158649 0.0323433 0.000488044 -0.298394 -0.28972 9.88695
0.758 -0.0143947 0.00873182 0.00672582 -0.308731 0.00355668 9.91061
0.759 0.00388213 0.0174579 0.00386744 -0.3956 -0.100804 9.87923
0.76 0.0121628 -0.000685551 -0.010513 -0.370953 -0.236469 9.95404
0.761 -0.0171009 -0.00533776 -0.0121031 -0.313916 -0.162283 9.95372
0.762 -0.00150825 -0.00199712 -0.00762896 -0.283184 0.0988135 9.76216
0.763 -0.00873724 -0.00458262 -0.00157837 -0.293871 -0.0624269 9.86036
0.764 -0.0110416 0.00512346 -0.00320629 -0.229687 -0.276861 9.78643
0.765 0.00998841 0.0165026 0.0070516 -0.076092 0.0184056 9.68988
0.766 -0.00539213 0.00221051 0.00373737 -0.338257 -0.126849 9.86334
0.767 0.0132368 -0.000717046 0.0046518 -0.185302 -0.124773 9.86409
0.768 0.00194275 -0.00551193 -0.000899789 -0.269336 -0.344577 10.0575
0.77 -0.00829661 0.00761466 -0.0154753 -0.0939178 -0.0659734 9.83625
0.771 -0.0223596 0.00672822 -0.00203823 -0.214508 0.0484049 9.79947
0.772 -0.00939979 -0.00320505 -0.00670535 -0.225626 -0.243972 9.83995
0.776 -0.0180381 0.00409602 -0.00840081 -0.154173 -0.129653 9.78517
0.777 0.00807699 0.0112113 -0.00091699 -0.150792 -0.274284 9.77866
0.778 0.00708644 0.00509824 0.0159869 -0.0652217 -0.114614 9.86056
0.779 -0.013997 -0.0175424 -0.00174742 -0.403734 0.014616 10.1029
0.78 0.00136158 0.0139861 0.00305366 0.0169222 -0.187667 10.172
0.781 0.0189595 0.017043 0.0156747 -0.0691573 -0.037191 10.1024
0.782 -0.00132258 0.0173664 0.00381695 -0.303203 -0.234048 10.0948
0.783 -0.00912045 -0.00617021 -0.0191527 -0.349073 -0.144344 9.9548
0.784 -0.0364906 0.0364971 0.00322013 -0.415972 -0.161856 9.93111
0.785 0.000758723 0.0133661 -0.000619268 -0.201048 -0.214645 9.77413
0.786 -0.0102672 -0.00559106 -0.00979244 0.0642872 -0.0246881 9.70118
0.787 0.00680525 0.00123695 0.0203393 -0.222116 -0.0424326 9.97928
0.788 -0.00648852 -0.00735496 0.00221847 -0.286532 -0.100376 9.91679
0.789 0.00566853 0.00654601 0.013078 -0.411025 -0.1802 9.58727
0.79 0.00382748 0.00631353 -0.00232896 -0.122698 -0.327306 9.88408
0.791 0.0159553 -0.00555087 -0.0172261 -0.188569 -0.28232 9.83456
0.792 -0.00707732 0.00391116 0.000989198 -0.331701 -0.237234 9.77485
0.793 0.0165774 0.00768167 -0.00491803 -0.237337 -0.2261 9.81219
0.794 -0.0106867 0.000405599 0.0146468 -0.206668 -0.388519 9.67674
0.795 -0.00665525 0.0111222 -0.0187008 -0.261709 -0.0104994 9.90632
0.796 -0.00991426 0.0141608 -0.00893414 -0.191064 -0.123848 10.0356
0.797 -0.00652116 0.00499036 0.00804303 -0.321495 -0.102631 9.83612
0.798 0.00916456 0.00932193 -0.00177646 -0.248601 -0.117042 9.7555
0.799 0.00731248 0.00919425 0.0129191 -0.202892 -0.0649343 9.84737
0.8 -0.0102037 0.0237554 -0.0154899 -0.181885 -0.261161 9.88381
0.801 -0.0047254 0.0019774 0.0120846 -0.258313 -0.254826 9.83892
0.802 -0.00494101 0.0163939 -0.00600985 -0.230632 -0.154922 9.69683
0.803 -0.000687998 0.0140521 -0.00323237 -0.256692 -0.183396 9.8532
0.804 0.00565913 0.00347779 -0.00497988 -0.21364 -0.258445 9.76153
0.805 -0.00273184 0.0286593 0.00546297 -0.15673 -0.244768 9.84478
0.806 0.000474627 0.00986025 0.00571112 -0.368185 -0.020214 9.67619
0.807 -0.00191122 -0.00241396 0.00773563 -0.42404 -0.102956 9.64848
0.808 0.0107063 0.00505068 0.0190264 -0.183761 -0.236894 10.0768
0.809 0.00706526 0.00210931 -0.00156276 -0.34058 -0.183457 9.79154
0.81 0.00395866 0.0219708 0.00948321 -0.272777 -0.0885952 10.0165
0.811 -0.00133582 0.00427017 0.00313127 -0.208322 -0.29405 9.88526
0.812 -0.0017523 0.00898954 -0.0125009 -0.254471 0.0898606 9.70179
0.813 0.0087363 -0.0119228 -0.0238851 -0.188734 -0.0257583 9.78751
0.814 0.0171226 -0.0108657 0.0237333 -0.0782826 -0.116899 9.92699
0.815 -0.0199066 0.0111185 0.00424351 -0.417895 -0.142943 9.97701
0.816 -0.0116251 0.0117844 -0.00719564 -0.306176 -0.249653 10.0221
0.817 0.0201717 0.0105499 0.000375651 -0.0641194 -0.191875 9.96911
0.818 -0.00735188 0.0074142 -0.00409664 -0.222466 0.00323556 9.84909
0.819 0.0108155 0.0058775 0.00157207 -0.359114 -0.0831618 9.84073
0.82 -0.00121145 0.00134496 0.011898 -0.247239 -0.230384 9.90568
0.821 -0.00707064 0.00712809 -0.0250049 -0.0122593 -0.0913605 9.83158
0.822 0.00215411 -6.78521e-05 -0.0030421 -0.460368 -0.129292 9.7095
0.823 -0.0161765 0.012212 -0.00302347 -0.302621 -0.153607 10.0258
0.824 -0.00443941 0.0176318 -0.00604977 -0.316394 -0.0115771 9.91635
0.825 0.00578746 -0.000847016 -0.00470256 -0.213999 -0.0472755 9.89093
0.826 -0.0046278 -0.0129555 -0.00464959 -0.335793 -0.340957 10.1155
0.827 -0.0186754 0.0104082 0.00269383 -0.134436 -0.119867 9.7604
0.828 -0.0222636 -0.00043891 -0.0103905 -0.374041 -0.255174 9.6659
0.829 0.00665665 0.00561871 -0.00793623 -0.402025 -0.417056 9.75679
0.83 0.00492192 0.00209302 0.00451581 -0.339522 -0.0869206 9.69485
0.831 -0.0118629 -0.0106542 0.0113841 -0.226724 -0.0261828 10.0951
0.832 -0.00813764 0.00544678 -0.00469471 -0.0192258 -0.2069 9.86018
0.833 0.0183917 0.0181026 0.000936363 -0.124071 -0.405017 9.53906
0.834 0.0137911 0.0117945 -0.00766397 -0.224659 -0.298231 9.82939
0.835 -0.00895917 0.0143871 -0.0224024 -0.260211 -0.379129 9.95071
0.836 0.00669209 0.0133593 0.000213325 -0.16028 -0.0861552 9.78655
0.837 0.000904184 0.0169722 -0.00854375 -0.288016 -0.0933823 9.83872
0.838 0.00579772 0.0113982 0.00156778 -0.173643 -0.271799 9.96755
0.839 0.0140449 -0.00254813 0.0036877 -0.30358 -0.252974 9.87444
0.84 0.00363592 -0.00539555 -0.00874673 -0.370112 -0.0682368 9.81489
0.841 0.0117836 0.0231314 0.0165485 -0.118682 -0.104592 9.99694
0.842 -0.0119236 0.0100406 -0.00394018 -0.203529 -0.156269 9.54673
0.843 0.0161978 0.00906528 -0.00939004 0.0202422 -0.364088 9.9254
0.844 0.0310203 0.00822692 -0.0224312 -0.153713 -0.314629 9.8466
0.845 0.00641282 -0.0111076 0.000650473 -0.198157 -0.147835 9.87523
0.846 -0.0065763 0.00383401 0.00028789 -0.101402 -0.135229 9.95766
0.847 -0.00687211 0.0173546 0.0144489 -0.0571457 -0.204955 9.8118
0.848 -0.00431446 0.0090271 -0.0227278 -0.116401 -0.312347 9.95238
0.849 0.0185591 0.0116325 -0.0192429 -0.147981 0.0791583 9.82409
0.85 -0.00243269 -0.0103783 0.0117705 -0.224675 0.103063 9.85379
0.851 -0.00467429 0.00998779 -0.00267819 -0.22921 -0.132028 9.55773
0.852 0.00347617 0.0166374 0.00222208 -0.130682 -0.117159 9.77155
0.853 -0.00572818 0.0268226 -0.0133366 -0.299614 -0.0733981 9.54922
0.854 -0.0116054 0.00255375 0.000552967 -0.357134 -0.148698 9.84981
0.855 -0.0101954 0.0197213 -0.0232911 -0.251004 0.0452608 9.94108
0.856 -0.027345 0.0169617 -0.000430284 -0.206098 -0.00732675 9.85512
0.857 -0.000694567 -0.0352843 -0.00285001 -0.298043 -0.160186 10.0909
0.858 -0.00925496 0.00935125 0.00813753 -0.140221 -0.294848 9.82006
0.859 -0.00105046 0.0168027 0.00261922 -0.222734 -0.12177 9.61456
0.86 -0.009266 -0.00228209 0.0137807 -0.0265921 -0.353917 9.92923
0.861 -0.0155633 -0.00887964 -0.00819828 -0.469428 -0.29021 10.0176
0.862 -0.00154045 0.000878148 0.0135759 -0.02529 -0.29417 9.97513
0.863 -0.00752957 0.00470817 0.00175431 -0.393487 -0.160293 9.88832
0.864 -0.017172 0.00204554 -0.0230025 -0.112138 -0.105544 9.64923
0.865 -0.00168317 0.0305622 -0.01004 -0.396049 -0.0818883 9.70009
0.866 -0.00216063 0.00646142 0.00369697 -0.335049 -0.0695361 9.81668
0.867 0.00167703 -0.00894983 0.0122627 -0.295217 -0.253473 9.95737
0.868 -0.00599335 0.00967059 0.000209201 -0.313805 -0.213686 9.7127
0.869 -0.00332586 -0.018796 -0.011973 -0.490568 -0.41667 9.78329
0.87 -0.03081 -0.00397131 0.00586608 -0.311393 0.00777719 9.83135
0.871 0.0121705 -0.0022788 0.000428069 -0.335195 -0.0154297 9.96102
0.872 -0.0163407 0.00538335 -0.0013605 -0.371129 -0.14489 9.70105
0.873 0.00250954 0.0121987 0.00186969 0.00434003 -0.13526 9.91231
0.874 0.000571691 0.0235862 0.0048747 -0.307347 -0.128302 9.9319
0.875 -0.01405 0.0235282 0.0224056 -0.263605 -0.484396 9.89182
0.876 -0.00123436 0.00833038 -0.00198761 -0.139061 -0.230488 9.65616
0.877 -0.00958824 0.0154622 -0.0156961 -0.186844 -0.105989 9.83896
0.878 -0.00919796 -0.00656449 -0.00360003 -0.2674 -0.187663 9.90496
0.879 0.00674055 0.0160819 0.00733307 -0.320682 -0.179523 9.86149
0.88 0.00466647 0.028936 -0.0125096 -0.314997 -0.0738957 9.85404
0.881 0.0141301 0.00414807 0.00695154 -0.482414 -0.0345319 10.0316
0.882 -0.00947042 0.0177705 0.00956325 -0.275309 -0.268729 10.2197
0.883 -0.00110001 0.0147737 -0.0102501 -0.0145266 -0.0783205 9.9615
0.884 0.0128069 0.0101969 -0.000644015 -0.163489 -0.268783 9.93701
0.885 -0.0137483 0.0112312 -0.012769 -0.0954806 -0.505409 9.87719
0.886 0.0123235 0.014244 -0.00439097 -0.424488 -0.202094 9.82605
0.887 0.00994484 0.00683337 -0.00361758 -0.45689 -0.273575 9.64173
0.888 0.00427722 0.00385492 0.000606936 -0.242414 -0.24792 9.94681
0.889 0.0174661 0.00557781 0.00913744 -0.234712 -0.164335 10.0251
0.89 -0.0272289 0.0137684 -0.00780313 -0.283613 -0.1403 9.66684
0.891 0.00237406 0.0314477 0.00446476 -0.166346 -0.192868 10.0296
0.892 0.0162303 0.00129465 0.00959021 -0.349234 -0.12343 9.82985
0.893 0.00827119 -0.0101274 -0.00309999 -0.00937087 -0.465646 9.79512
0.894 0.000114689 0.0151226 0.00309748 -0.126819 -0.112306 10.0216
0.895 0.0201496 0.000115072 -0.0015274 -0.163997 -0.0650094 9.84966
0.896 0.0128173 0.0092689 0.0103461 -0.0954593 -0.192877 9.73132
0.897 -0.0226008 0.0275073 -0.0208696 -0.192359 -0.0167284 9.97609
0.898 -0.002823 0.00733635 -0.00987542 -0.180628 -0.324178 9.76659
0.899 -0.0115034 0.0112251 -0.00405639 -0.323742 -0.0305738 9.96908
0.9 0.00196479 -0.00140056 0.0139022 -0.0804665 -0.122913 9.67622
0.901 0.0102254 0.00107138 0.0119641 -0.316485 -0.215651 9.78627
0.902 -0.00463948 0.00829032 0.00447929 -0.341544 -0.166258 9.51433
0.903 0.00767993 0.0161775 0.00775563 -0.213612 0.0191236 9.86268
0.904 -0.0142526 0.0206446 0.022055 -0.414394 -0.005362 9.99318
0.905 0.00335185 -0.0103948 -0.00922671 -0.163635 -0.163134 9.86642
0.906 -0.00533892 0.0124653 -0.0144102 -0.263472 -0.248884 9.98133
0.907 0.000518381 0.000753926 0.00207822 -0.171609 -0.308551 10.0164
0.908 -0.00116998 0.00243194 -0.00606274 -0.236926 0.0591487 9.81939
0.909 -0.00224438 -7.85316e-05 -0.0110215 -0.132634 -0.117167 9.79378
0.91 -0.0116476 0.00478699 -0.00426162 -0.531134 -0.177318 9.97124
0.911 0.0153424 0.0147061 0.00633782 -0.155379 -0.0804046 9.92359
0.912 -0.013329 0.00690061 0.00150556 -0.172662 -0.0330983 10.0074
0.913 0.00359829 -0.00512642 0.0141793 -0.103507 -0.292175 9.50261
0.914 -0.00140188 0.0226006 0.0054214 -0.0722807 -0.15907 9.75641
0.915 0.00075796 0.00150846 -0.00156043 -0.25747 -0.317319 9.71642
0.916 0.0176722 0.00323128 0.00999465 -0.0935128 -0.353878 9.98737
0.917 0.00769685 -0.0027797 0.00957912 -0.213122 0.0238002 9.65915
0.918 -0.00584902 0.0151769 0.00395894 -0.129003 -0.320997 9.64393
0.919 0.0100066 -0.00280387 -0.00328312 -0.248557 -0.167751 10.1379
0.92 -0.00889335 -0.00517789 -0.00577894 -0.325889 -0.148703 9.64221
0.921 0.00485085 0.00476475 0.0141236 -0.201028 -0.0425764 9.68122
0.922 -0.00546388 0.00736257 0.0177768 -0.317507 -0.374177 9.72365
0.923 -0.00320114 0.00806025 0.00933287 -0.244077 -0.267043 9.73022
0.924 -0.017659 0.018547 -0.000911837 -0.481229 -0.103307 9.76356
0.925 0.0175265 -0.00897824 0.0163573 -0.166989 -0.0621537 9.79492
0.926 -0.0410371 0.00507654 -0.0091445 -0.312343 -0.170387 9.84009
0.927 0.000481966 -0.0028114 -0.00375815 -0.211515 -0.0840322 9.69581
0.928 -0.00173184 -0.00709303 0.00524497 -0.27182 -0.205278 9.67303
0.929 0.00385671 -0.000766043 0.0130401 -0.187949 -0.119713 9.81884
0.93 0.00264239 -0.0023683 -0.0071597 -0.0841646 -0.169923 10.0026
0.931 -0.00869032 0.0396103 0.00402826 -0.0294229 -0.229946 9.6983
0.932 0.014503 0.032324 0.0192917 -0.341156 -0.412532 9.82212
0.933 -0.0132058 0.0152552 0.0102267 -0.058105 -0.227985 9.87213
0.934 0.0013883 0.00758977 -0.00767273 -0.23155 0.0500642 9.65549
0.935 -1.33644e-05 -0.00340625 -0.00759012 -0.31959 -0.0956023 9.88854
0.936 -0.00110879 0.000331248 0.00726217 -0.17699 -0.0833306 9.71314
0.937 0.00634609 0.0221988 -0.00736695 -0.12045 -0.108604 9.93914
0.938 -0.000977044 -0.00573468 0.0134106 -0.238527 -0.209035 9.85373
0.939 -0.0053215 0.021598 0.0131856 -0.326061 0.0286653 9.78348
0.94 0.00671105 0.0148856 0.000774559 -0.160825 0.0295679 9.98312
0.941 0.0167881 0.00706513 -0.00668601 -0.137071 -0.236182 9.79904
0.942 0.00770164 0.00101604 -0.0080173 -0.136425 -0.158704 9.87971
0.943 0.00823385 0.0155199 -0.0114925 -0.221216 -0.13912 9.91486
0.944 0.0126688 0.00939127 -0.0205812 -0.0334068 0.0817906 9.65074
0.945 -0.0119567 0.00346354 -0.00800942 -0.357417 0.0342789 9.63353
0.946 -0.00424727 0.00148951 0.0135271 -0.0291774 -0.0343595 9.81707
0.947 0.0162679 -0.00668005 -0.00526361 -0.150446 -0.42877 9.99758
0.948 -0.0145815 0.0166532 0.00501709 -0.0669178 -0.130757 9.83171
0.949 0.00702037 0.00639738 -0.0122035 -0.343007 -0.242059 9.73414
0.95 -0.0173243 0.000228003 -0.00377546 -0.445483 -0.242735 9.87467
0.951 -0.00878458 0.0165633 0.0191619 -0.370615 -0.0506132 9.65729
0.952 -0.000559672 0.00819376 0.0112054 -0.271419 -0.260929 9.76624
0.953 0.00271026 0.00914509 -2.69762e-05 -0.395039 -0.200667 10.0347
0.954 -0.00634822 -0.0151015 0.0202381 -0.140156 -0.05644 9.84
0.955 -0.00904451 0.00541793 -0.0108964 -0.456859 0.0222784 9.84968
0.956 0.00349892 0.0155884 0.0199738 -0.142414 -0.201341 9.94446
0.957 0.0116597 0.00286968 -1.13348e-05 -0.324716 -0.0363126 9.87447
0.958 -0.0100682 0.00494816 0.00559381 -0.310004 -0.144322 9.70297
0.959 0.0102834 0.00512928 -0.0114265 -0.185035 -0.213849 9.94246
0.96 -0.00959076 -0.0327242 0.00491074 -0.220411 -0.111479 10.022
0.961 0.0166529 -9.14321e-05 -0.0253946 -0.298749 -0.0920988 9.93904
0.962 0.00295163 -0.00680539 0.00477498 -0.175417 0.148544 10.0923
0.963 0.0235434 0.015626 -0.017981 -0.182033 -0.3222 9.82721
0.964 -0.010393 0.0199303 0.00320349 -0.300924 -0.0701016 9.92312
0.965 -0.00253982 -0.0166544 -0.0133899 -0.0620257 -0.137957 9.69211
0.966 -0.00465257 -0.0101198 0.015813 -0.226435 -0.0789124 10.026
0.967 0.00175099 0.0105782 0.00591461 -0.219632 -0.150824 9.96758
0.968 -0.0189244 -0.0112317 0.00347333 -0.372636 -0.327111 9.77978
0.969 0.00124398 0.000417688 0.0124783 -0.229506 -0.308174 9.71621
0.97 0.00182033 0.017721 -0.00926391 -0.14984 -0.082055 9.66994
0.971 0.00163334 0.00892646 0.0208873 -0.419007 -0.0967012 9.80248
0.972 -0.0214881 0.0104983 -0.0106086 -0.276217 -0.112482 10.0536
0.973 -0.00369625 -0.000535191 -0.0026548 -0.135892 -0.0920361 9.88716
0.974 -0.01721 0.0108289 0.0233871 -0.292346 -0.165818 9.95619
0.975 -0.00325787 0.012143 -0.00692897 -0.241058 0.0161741 9.80921
0.976 0.00331141 0.00397266 0.0173258 -0.139852 -0.106178 9.80042
0.977 0.00321608 0.0039804 -0.0137281 -0.249323 0.00843697 9.64437
0.978 -0.010853 -0.0050564 -0.0291041 -0.381242 -0.42 10.0522
0.979 -0.00613711 -0.00534928 0.00285512 -0.588249 -0.160034 9.81614
0.98 -0.0159319 0.00410423 -0.00537155 -0.379649 -0.0490834 9.80527
0.981 -0.00647473 0.00468881 0.00871108 -0.265332 -0.205544 9.79156
0.982 0.0123955 0.0145634 0.0152481 -0.400394 -0.120148 9.95508
0.983 -0.0125221 0.00276072 0.0030462 -0.198289 -0.172099 9.85094
0.984 -0.0216084 0.00749954 -0.00418719 -0.244529 -0.320403 10.0165
0.985 -0.00375622 -0.00507014 -0.0160626 -0.129997 -0.0923332 9.80519
0.986 -0.0230152 0.00861494 0.00079465 -0.0357094 -0.165549 9.6249
0.987 -0.00923538 0.00896076 -3.82767e-06 1.67679e-05 -0.208082 9.88631
0.988 -0.0150393 0.0121197 -0.0252427 -0.135509 -0.220091 9.88165
0.989 -0.000277143 0.00700734 -0.00254306 -0.340684 -0.118348 10.0014
0.99 -0.0138025 0.00343505 -0.00773907 -0.282995 -0.319184 9.77863
0.991 -0.00267195 0.0290498 -0.0133151 -0.196303 -0.349898 9.8225
0.992 -0.0143429 0.00908504 -0.0104666 -0.263438 -0.0647179 9.8293
0.993 -0.0144856 0.00893687 0.0106122 -0.356336 -0.296017 9.89215
0.994 -0.00870991 0.00498821 -0.000991289 -0.168959 -0.196288 9.66049
0.995 -0.0148116 0.0087339 0.00740311 -0.338654 -0.175021 9.62551
0.996 0.00401413 -0.000869883 -0.0130909 -0.171379 0.0509068 9.95781
0.997 -0.0193729 0.0082038 -0.00575022 -0.450516 -0.0625457 9.82754
0.998 -0.000815756 -0.00204086 0.00847963 -0.330836 -0.202711 9.9087
1 0.00129729 0.0054429 -0.022225 -0.333585 0.0395316 9.92707
1.001 0.00634531 -0.00338609 0.00553977 -0.338117 -0.0717227 9.85116
1.002 -0.0176861 -0.00814798 0.0311654 -0.151626 -0.0910228 10.1088
1.003 -0.00171639 -0.00977778 0.000909838 -0.220175 -0.0560478 9.84606
1.004 0.00490888 0.018507 0.00170072 -0.112412 -0.106975 9.76404
1.005 0.00445535 0.00804217 0.00458751 -0.357473 -0.195546 10.1101
1.006 0.00618437 0.00701962 -0.00110292 -0.352734 -0.159673 9.97098
1.007 -0.00678527 0.0143552 -0.00203738 -0.244996 -0.195624 9.79968
1.008 -0.0125825 -0.00444308 -0.00474715 -0.305528 -0.121518 9.96019
1.009 -0.00357363 0.0108312 0.00527352 -0.219337 -0.224804 9.65078
1.01 0.0031361 0.00652352 0.0126395 -0.496655 -0.316014 9.84366
1.011 0.00389232 -0.00660265 0.0166359 -0.203239 -0.269086 9.90888
1.012 -0.00181415 -0.0159744 0.0103037 -0.5724 -0.174433 9.75611
1.013 -0.00128055 -0.00428327 0.00155559 -0.366821 -0.00129008 9.93443
1.014 -0.0165228 0.0388921 -0.0081844 -0.370339 -0.287082 9.88907
1.015 -0.0119541 0.0106094 -0.00594782 -0.402488 -0.424806 9.77797
1.016 -0.00761863 0.0104699 -0.0114425 -0.275822 -0.135914 9.70096
1.017 -0.0205981 0.0075218 0.0207074 -0.183803 -0.198446 10.0268
1.018 -0.00220906 0.0208548 -0.00353501 -0.361865 -0.317562 9.90807
1.019 0.00581126 0.00288724 0.00307521 -0.0818962 -0.157921 9.95795
1.02 -0.00215484 0.0173647 -0.0096963 -0.325546 -0.213719 9.93556
1.021 0.00711178 0.00698696 0.0174563 -0.282225 -0.0233807 10.1331
1.022 0.00683432 -0.000575227 0.000537805 -0.124999 -0.359568 9.88732
1.023 -0.00779248 0.00610868 -0.0032997 -0.240593 -0.296088 9.95326
1.024 -0.00590574 0.0186147 -0.0113714 -0.285854 -0.403065 10.067
1.025 0.00216896 0.00880753 0.00315621 -0.373412 0.0413517 9.78523
1.026 -0.00918146 -0.00248337 0.0144473 -0.163454 -0.0916729 10.0022
1.027 0.00669505 0.00504184 -0.00904222 -0.430611 -0.257853 9.8506
1.028 0.00561433 0.00594096 -0.0138845 -0.181664 -0.259646 9.84424
1.029 0.00321689 -0.00584389 -0.00687365 -0.274535 -0.197315 10.0109
1.03 -0.0128438 -0.00267153 0.00135306 -0.389862 -0.272559 9.94887
1.031 -0.00366081 -0.0060903 0.0135556 -0.215079 -0.0753634 9.89423
1.032 -0.0202219 0.00964798 -0.00276448 -0.123945 -0.366681 10.092
1.033 0.0138749 0.0167848 0.00653433 -0.112049 -0.165454 10.0691
1.034 -0.0109281 0.00336461 0.00323442 -0.0102084 -0.206838 9.95008
1.035 0.0196678 0.0108948 -0.00873008 -0.257309 -0.125631 9.98139
1.036 -0.00708999 0.0144915 0.0075453 -0.273722 -0.174854 9.70246
1.037 -0.00947847 -0.0149871 0.00765627 -0.239267 -0.15992 9.83034
1.038 0.0133889 0.00305681 -0.00590148 -0.140915 0.0379506 9.89033
1.039 -0.00521025 -3.72843e-05 -0.00525125 -0.201256 0.0664755 9.9597
1.04 -0.00169602 0.0223013 -0.0308553 -0.208182 0.0728404 9.93865
1.041 -0.00546004 -0.0112394 0.0359201 -0.347165 -0.0376943 9.66517
1.042 -0.00760086 0.0188404 -0.0197945 -0.191968 -0.139681 9.77228
1.043 0.00810848 0.0167088 -0.000905442 -0.0918098 -0.374754 9.86529
1.044 -0.0084798 0.015584 0.0168547 -0.217899 -0.19256 9.91394
1.045 -0.0184766 -0.00413064 -0.0143516 -0.163091 -0.157243 9.87062
1.046 0.0148486 0.0173884 -0.00727658 -0.260439 -0.0803886 10.1106
1.047 0.00349406 0.01794 0.017024 -0.131102 -0.0779504 9.87226
1.048 0.0184613 0.00229531 -0.00463463 -0.283155 -0.118282 9.8071
1.049 0.00330687 0.00417211 -0.000465974 -0.197189 -0.0288893 9.8872
1.05 -0.0246945 0.0119526 -0.0126711 -0.368216 -0.208306 9.67606
1.051 0.00207623 0.00990642 0.00390009 -0.290998 -0.477422 9.75913
1.052 -0.00199384 0.00379894 0.0093142 -0.30188 -0.407695 9.67463
1.053 0.0063295 0.00177588 -0.00719414 -0.380845 -0.197285 9.81061
1.054 -0.00521039 0.0163721 -0.00685788 -0.476215 0.0662403 10.1368
1.055 0.0173596 0.0169869 -0.0108793 -0.0578243 -0.252975 9.98757
1.056 -0.00851663 -0.00834035 0.0010573 -0.368689 -0.268173 10.0116
1.057 -0.0131709 0.00935717 -0.0130427 -0.144565 0.0232712 9.94672
1.058 -0.0139141 0.00140557 -0.0109757 -0.0906533 -0.224623 9.96787
1.059 -0.0245597 -0.0109694 -0.0089964 -0.307689 -0.060607 9.75047
1.06 -0.0164863 0.00127215 0.017452 -0.221701 -0.0319331 10.0568
1.061 0.00698804 0.00415463 0.014353 -0.263945 -0.238664 10.0495
1.062 0.00976278 0.00235445 0.00406262 -0.172209 -0.203471 9.98157
1.063 -0.00554386 0.0171663 -0.00103421 -0.315886 -0.0275092 10.1177
1.064 0.00580623 0.0114361 -0.000903137 -0.314619 -0.403782 9.77737
1.065 -0.0167492 0.00947249 -0.00297964 -0.0592728 -0.0904142 9.88397
1.066 0.012645 0.0112925 -0.00249488 -0.39997 -0.434499 9.70401
1.067 -0.00229919 0.0185538 -0.0130164 -0.425539 -0.148436 9.79847
1.068 -0.00853487 -0.00653097 -0.00813729 -0.19118 -0.123634 9.96935
1.069 0.00865061 0.00357669 0.00415844 -0.228792 -0.015862 9.90503
1.07 0.00683005 0.00653826 -0.014646 -0.207493 -0.390047 9.89418
1.071 -0.00276036 0.0130832 -0.00543311 -0.272076 -0.196458 10.045
1.072 -0.01008 0.00154275 0.0163671 -0.240636 -0.186154 9.8809
1.073 0.00885539 0.0285023 0.0101822 -0.198726 0.00900927 9.92628
1.074 0.00152478 0.0151065 0.0125915 -0.168595 -0.15879 9.95492
1.075 -0.00939033 -0.00983697 -0.00412844 -0.208848 -0.289811 9.96065
1.076 0.00246985 0.00791967 -0.0123438 -0.229228 -0.0399944 9.90388
1.077 -0.00968746 0.0154776 0.0166336 -0.178237 0.00428703 9.89564
1.078 -0.0172134 0.00903066 0.00370858 -0.41456 -0.0878897 10.0074
1.079 0.00487119 0.00210414 0.00849483 -0.154427 0.172036 10.0001
1.08 -0.00942508 0.0154489 -0.000787077 -0.290752 -0.185491 10.2731
1.081 -0.0094985 0.0126121 0.00404584 -0.39602 -0.0843521 9.84278
1.082 -0.00685277 -0.00839023 -0.000458626 -0.194561 -0.0332541 9.6852
1.083 -0.0158456 0.0107514 -0.00805063 -0.316978 -0.204578 9.73565
1.084 -0.000899971 0.0147407 0.0080785 -0.166814 -0.0772282 9.89646
1.085 -0.0175387 0.00487171 -0.00150087 -0.396089 -0.164046 9.99191
1.086 -0.00725993 0.0198888 0.0185929 -0.274656 -0.128698 10.1514
1.087 -0.00909806 0.0170644 -1.60154e-05 -0.348342 -0.369718 9.76878
1.088 0.00542401 0.00465585 0.000841018 -0.118869 0.291335 9.80823
1.089 0.014015 -0.00805701 -0.00245304 -0.494932 0.102378 10.0968
1.09 -0.0107127 0.00820438 -0.00391586 -0.51573 -0.0345152 9.9847
1.091 0.0304212 0.0122255 0.0183046 -0.671764 -0.203813 9.79898
1.092 0.015269 -0.00121927 -0.0288116 -0.341501 -0.373842 9.63188
1.093 -0.00459165 0.0119108 0.00461893 -0.302131 -0.276051 9.71451
1.094 -0.013413 -0.00470905 0.010298 -0.286825 -0.226197 9.88371
1.095 0.00999169 0.0262016 -0.00716364 -0.000223049 -0.0640522 9.69227
1.096 0.0126549 0.006124 0.0120006 -0.238621 0.0669825 9.84217
1.097 -0.0132284 -0.0059527 -0.0174424 -0.348308 -0.274663 9.94369
1.098 -0.00207692 0.0221656 0.0151196 -0.400955 -0.284664 9.93495
1.099 0.00672292 0.00646185 0.00164462 -0.148915 -0.222097 10.1073
1.1 0.00707969 0.0125438 0.0136455 -0.210122 0.10681 9.99462
1.101 0.00157141 0.0125989 -0.00937671 -0.33059 -0.0465184 9.97468
1.102 0.00234478 0.0118367 0.0160625 -0.235167 -0.0297321 9.69983
1.103 -0.0123347 0.0156874 -0.0272271 -0.113919 -0.170649 9.89802
1.104 -0.00387439 0.00555283 -0.00442279 -0.217846 -0.126711 9.7446
1.105 -0.0201688 -0.000554541 -0.0157248 -0.183204 0.0634808 9.88731
1.106 0.000810623 0.0148633 -0.00252907 -0.0406851 -0.204472 9.65797
1.107 0.0151243 -0.000574369 0.00857348 -0.163607 -0.133356 9.6963
1.108 0.0161041 0.0152457 0.00565603 -0.356293 -0.276102 9.85554
1.109 0.027902 -0.0136355 -0.00646138 -0.136808 -0.00182321 9.76253
1.11 -0.0130328 0.00204789 0.00856302 -0.189039 0.0887868 9.97484
1.111 0.0125357 0.00811696 0.00378149 -0.159972 -0.0745126 9.60758
1.112 0.00787769 0.0218078 0.00449847 -0.246747 -0.184229 9.94489
1.113 -0.0224929 -0.0213211 0.00942572 -0.0891527 -0.246547 9.89817
1.114 -0.00192143 -0.0121665 0.00363104 -0.0176987 -0.077009 9.84754
1.115 0.0055604 -0.00677146 0.00881182 -0.434726 -0.376718 10.1609
1.116 -0.00469485 0.0142408 0.00205218 -0.267666 -0.295461 9.82073
1.117 -0.00763412 0.00595068 -0.0111697 -0.311089 -0.0769226 9.97375
1.118 -0.00773459 0.00660784 -0.00200907 -0.32789 -0.132291 10.0195
1.119 -0.00535095 -0.00511546 0.00234276 -0.261611 -0.153065 9.92354
1.12 -0.00765589 -0.00107115 0.00815615 -0.353986 -0.010729 9.96852
1.121 -0.0089054 0.0165618 -0.00159198 -0.210209 -0.0945178 9.85832
1.122 -0.0103012 -0.00923815 -0.00677491 -0.245234 -0.110466 9.80992
1.123 0.00640119 0.00999785 0.00671208 -0.299541 -0.250297 9.77889
1.124 0.00880232 0.0173514 0.00674695 -0.201484 -0.151814 9.74787
1.125 0.0200589 -0.0116923 -0.0175807 -0.434507 -0.071053 9.77145
1.126 0.0132139 -0.00402345 0.00388523 -0.204278 -0.34215 9.89738
1.127 0.00434481 0.0151753 -0.00141408 -0.100108 -0.0313504 9.96343
1.128 0.00850558 -0.00832922 0.020243 -0.249134 -0.264103 9.81073
1.129 -0.026286 0.0267068 -0.000700293 -0.173458 -0.19096 9.98298
1.13 -0.00416651 0.00961645 0.00114423 -0.130466 -0.310713 9.8364
1.131 0.0173654 -0.0189739 -0.00427374 -0.310734 -0.0560104 9.84788
1.132 0.00037186 -0.00299323 -0.014784 -0.238113 -0.23884 10.1037
1.133 -0.00378873 0.0168394 -0.00420675 -0.191419 -0.153147 9.87566
1.134 0.0035899 0.00674404 -0.00992917 -0.35392 -0.238057 9.84518
1.135 0.0159188 0.00837049 -0.015751 -0.294518 -0.0270622 9.94752
1.136 -0.00488151 -0.00514944 -0.000718163 -0.303944 -0.114358 9.81373
1.137 0.0156393 -0.0103935 0.00871629 -0.371129 -0.227803 9.99515
1.138 0.00219291 0.0300974 -0.0172809 -0.302986 -0.172194 9.64694
1.139 0.0067622 -0.00544252 -0.0272917 -0.306712 -0.342561 9.78865
1.14 -0.0042907 0.00300416 -0.015844 -0.234942 -0.13747 9.82301
1.141 0.00255505 0.00498787 -0.0118124 -0.0626583 -0.0445135 9.74359
1.142 0.0194724 0.00220327 -0.0049266 -0.388615 -0.191494 10.0505
1.143 -0.00049262 -0.0121446 0.00723808 -0.408374 -0.168925 9.92579
1.144 0.00559414 0.0146924 -0.0148058 -0.24693 -0.128325 9.81106
1.147 0.0108507 -0.0100671 -0.0188754 -0.267363 -0.447223 9.8171
1.148 -0.0124737 0.0113559 -0.00480156 -0.411497 -0.070528 9.8701
1.149 0.0140491 -0.00335059 -0.00639773 -0.300694 -0.0124038 9.7776
1.151 -0.00318681 0.0197926 0.00609596 -0.279642 -0.156195 9.8055
1.153 -0.013038 0.00629502 0.0186878 -0.132961 -0.152956 10.0181
1.154 -0.0125357 -0.016689 0.00169942 -0.523032 -0.042469 9.85416
1.155 -0.00609267 0.00487011 0.00644268 -0.206895 -0.118238 9.63574
1.156 -0.00781003 -0.00990649 0.0117022 -0.239235 -0.102022 9.98901
1.157 -0.0146855 0.0145759 0.00245485 -0.416402 -0.00784712 9.66324
1.158 -0.00941022 0.00510094 -0.0105306 -0.281094 -0.0710061 9.79913
1.163 -0.00278194 0.00433377 0.0207011 -0.370202 -0.178476 10.0571
1.164 -0.0124048 -0.0122979 0.0116211 0.0616195 -0.172963 9.81115
1.165 0.000424579 0.00842939 -0.00542876 -0.178586 -0.0213119 10.0084
1.166 0.00948912 0.00399539 -0.0159595 -0.417277 0.0852208 9.86273
1.167 0.00555632 0.00258935 -0.00281329 -0.0646204 -0.154339 9.98682
1.168 -0.0183951 -0.0163741 0.00697211 -0.326216 -0.145592 9.69785
1.169 0.00154294 0.00693293 -0.0105108 -0.159353 0.0274992 9.93172
1.17 0.0138504 0.00502976 -0.0164088 -0.190383 -0.47421 9.82595
1.171 -0.0112358 -0.0101966 0.00951117 -0.247479 -0.190197 10.0145
1.172 0.0115116 -0.0109243 -0.00763786 -0.167559 -0.27859 10.093
1.173 0.00360896 0.00201914 -0.000604176 -0.353061 -0.0986701 9.88819
1.174 -0.0243501 -0.000339517 0.00448222 -0.28544 -0.0981368 9.82525
1.175 0.0116056 -0.00868348 0.0070115 -0.252222 0.0237034 9.89863
1.176 -0.00833812 0.00334658 0.000154345 -0.2796 -0.0405008 9.92301
1.177 -0.0159201 -0.00267584 -0.00404955 -0.275484 -0.0287924 9.69144
1.178 -0.00495446 0.0149755 0.00956852 -0.196136 -0.238606 9.90532
1.179 0.00803541 0.0180757 0.0250086 -0.248815 -0.0527204 9.81643
1.18 0.000399994 0.00787061 0.00668814 -0.234114 -0.255595 9.81065
1.181 -0.0116214 0.0193821 0.00727922 -0.299966 -0.22274 10.0889
1.182 -0.0168636 0.00455048 0.000558524 -0.186776 -0.0725952 9.88811
1.183 0.00390028 0.00415063 -0.0054351 -0.0220041 -0.157866 9.89938
1.184 0.0123223 -0.00645962 0.00373052 -0.297557 -0.0782393 9.89731
1.185 -0.00248865 -0.00682865 0.0051513 -0.210928 -0.376001 9.96547
1.186 0.00480308 0.00665731 0.00146825 -0.250485 -0.222459 9.89375
1.187 0.00899875 -0.000429916 0.0047924 -0.204574 -0.0623404 9.9288
1.188 0.00744644 0.00244531 -0.0114047 -0.331856 -0.0761283 9.88468
1.189 -0.0170733 -0.00788729 -0.00755233 -0.385168 -0.248731 9.68831
1.19 -0.00449855 0.00292767 0.00853874 -0.430842 -0.380087 9.97808
1.191 0.00122973 0.0121949 0.00914541 -0.082429 -0.220982 9.79198
1.192 -0.0122346 -0.00211046 0.00239284 -0.35724 -0.122603 9.90384
1.193 -0.0142038 -0.00839528 -0.00182593 -0.183374 -0.298493 9.83648
1.194 0.00249215 0.0115112 -0.00430815 -0.0789929 -0.284568 10.0159
1.195 0.00139708 -0.0250783 -0.004061 -0.0968438 -0.154103 9.88813
1.196 0.0105218 0.0204381 0.0380763 -0.234319 -0.323112 9.90356
1.197 0.00599133 0.00288225 -0.0114193 -0.18466 -0.222 9.60772
1.198 -0.0125989 0.0156634 0.00654937 -0.292571 -0.287323 9.71165
1.199 -0.00781044 0.0186542 -0.000240767 -0.4756 0.0599971 9.81318
1.2 -0.00499285 0.00365539 0.000279143 0.075402 0.0226044 9.82508
1.201 -0.00299352 0.00555997 0.0104212 -0.0725016 -0.309181 9.88772
1.202 -0.000346265 0.0155444 -0.0159803 0.0332738 -0.0735397 9.89547
1.203 -0.0119644 0.0118329 -0.00868807 -0.331095 -0.380053 9.89439
1.204 -0.00223256 -0.00555125 -0.00569595 -0.298765 -0.109949 9.83123
1.205 0.00907413 0.0143843 -0.0189198 -0.273503 -0.0892155 9.75872
1.206 -0.0105992 -0.00689995 -0.00281677 0.00748311 -0.285658 9.79351
1.209 0.0071354 0.0147525 -0.00876563 -0.143321 -0.0234852 9.79665
1.21 0.00371475 0.0127412 0.0120558 -0.239332 -0.0431028 9.97293
1.211 0.00851376 0.00915233 -0.00796584 -0.43156 -0.224493 9.82788
1.212 0.0013729 0.0271927 0.00191972 -0.372563 -0.192978 9.78232
1.213 -0.0196913 -0.000195151 -0.00142651 -0.339481 -0.230201 9.78906
1.214 -0.00781466 0.0107065 0.00420567 -0.256707 -0.124586 9.81532
1.215 0.001275 0.0226721 -0.00191877 -0.157627 -0.332101 9.82175
1.216 0.00229834 0.010341 -0.00854725 -0.401114 -0.364398 9.98607
1.217 0.00917327 0.0085209 0.00571779 -0.323344 -0.263823 9.79077
1.218 -0.00122119 -0.00242265 -0.0074486 -0.0822611 -0.19447 10.1981
1.219 -0.00558217 0.0153042 -0.0170916 -0.0145852 -0.366214 10.0367
1.22 -0.00275558 0.00948639 -0.000764764 -0.208153 0.130562 9.9536
1.221 0.00590142 0.0207621 0.0116428 -0.0237255 -0.411163 9.8414
1.222 0.00476097 0.0112018 -0.0103687 -0.207883 -0.134292 10.1098
1.223 -6.25506e-07 -0.00147905 -0.00807501 -0.268528 0.109139 9.74453
1.224 0.00617927 -0.00668184 -0.0022561 -0.145947 -0.0805639 9.87203
1.225 0.000222279 -0.016081 0.00523784 -0.0888241 -0.203086 9.95939
1.226 -0.00602297 0.0107769 0.00386851 -0.196205 -0.294754 9.63755
1.227 0.0190692 0.0298969 -0.0148756 0.0766236 -0.044636 9.97803
1.228 -0.0127581 0.0129765 0.0191343 -0.248303 -0.125758 9.85021
1.229 0.00188837 0.016474 0.00742292 -0.333047 -0.292252 10.0017
1.23 -0.016238 0.0169679 0.0123942 -0.160698 -0.327278 9.79536
1.231 0.0205882 0.0194684 0.00482465 -0.172252 -0.264942 9.84653
1.232 0.00975404 0.00102512 0.00285561 -0.351426 -0.289719 9.96546
1.233 -0.0032875 0.00403962 -0.00579996 -0.0520075 -0.14115 10.0643
1.234 -0.0097249 0.0070109 -0.0188742 -0.135257 -0.15173 9.97931
1.235 -0.00211136 0.0139437 0.00154165 -0.197229 -0.0976828 9.82199
1.236 -0.0228602 0.00318843 0.00616255 -0.228413 -0.289226 9.79407
1.237 0.00290153 -0.0107247 0.00318524 -0.271944 -0.313966 9.80823
1.238 -0.00982087 0.00954639 -0.0273476 -0.332074 0.000146853 9.91015
1.239 -0.00273522 0.00249948 0.000986084 -0.364421 -0.228302 9.781
1.24 -0.00842554 0.0143752 0.0052157 -0.0549103 -0.18943 10.0766
1.241 -0.0126091 -0.0207136 0.00326587 -0.129701 -0.105583 9.83248
1.242 0.00228057 -0.000954218 0.0037653 -0.0431952 -0.245052 9.88574
1.243 0.00164511 0.00943478 -0.00109437 -0.193431 0.0356581 9.96232
1.244 0.00232526 -0.0039171 0.00417844 -0.381544 -0.103121 9.95534
1.245 -0.0074293 0.0157909 0.0066647 -0.0452173 0.100911 9.83316
1.246 0.0038774 0.00112272 0.00495556 -0.457494 -0.249126 9.74064
1.247 0.00655584 0.00656659 0.00639141 -0.0515152 -0.317076 9.99618
1.248 -0.00788601 0.0100694 0.00765271 -0.0884626 -0.304515 9.72757
1.249 0.00876748 0.0255479 0.00872084 -0.283247 -0.375625 9.78518
1.25 -0.0179418 0.0102977 -0.0110462 -0.154255 -0.0220791 9.68641
1.251 -0.00687439 0.0131534 0.00785206 -0.293095 -0.0959011 9.69685
1.252 -0.0037683 -0.0133997 0.00248205 -0.252255 -0.0991739 9.82717
1.253 0.00162469 -0.00186803 0.00652275 -0.244053 -0.057389 9.86455
1.254 0.00797883 0.000571272 -0.00170531 -0.231948 0.0267441 9.91286
1.255 0.00526291 0.00490125 0.00598529 -0.533428 -0.260904 10.0594
1.258 -0.00247896 0.00218967 0.0190505 -0.348868 -0.332338 10.0904
1.259 0.0234928 -0.000580503 0.0012379 -0.0964576 -0.0270624 10.3093
1.26 -0.00684275 0.00160753 0.0140593 -0.178048 -0.492317 9.9473
1.261 -0.00561714 -0.00899299 0.00269362 -0.264028 -0.188442 9.96219
1.262 -0.00346939 0.0100536 0.00715745 -0.15811 -0.208957 9.77618
1.263 0.00235291 0.00578171 -0.00164396 -0.148164 -0.0513975 9.82832
1.264 -0.00568199 -0.0112447 -0.0055057 -0.356896 0.0546294 9.94763
1.265 -0.00837318 0.0197251 -0.000624543 -0.347609 -0.380813 9.95085
1.266 0.00997932 0.00369622 0.0107317 -0.365426 -0.164639 10.0148
1.267 0.00605344 -0.00149848 -0.00755324 -0.169146 -0.164963 9.88907
1.268 0.007662 -0.011107 -0.00494087 -0.284503 -0.029389 9.94554
1.269 -0.00341968 0.00646362 -0.0258374 -0.330346 -0.0298407 10.1116
1.27 0.00457089 0.0213351 -0.00798244 -0.180079 -0.198847 9.96161
1.271 -0.000370484 0.0175407 0.00714326 -0.346606 -0.122343 9.87613
1.272 0.00104437 0.0135871 0.0230343 0.0125709 -0.0846415 9.88293
1.273 -0.0162935 -0.00215177 0.000847418 -0.0901111 -0.362677 9.82618
1.274 0.00415326 0.0197242 0.0119077 -0.281115 -0.189507 9.7266
1.275 0.00887537 -0.0159024 0.00378744 -0.303329 -0.230576 9.80923
1.276 -0.00276169 0.016887 -0.00255026 -0.221392 -0.0555379 9.85157
1.277 -0.00399721 0.00229511 0.00738207 -0.106025 -0.442655 9.88995
1.278 0.00481987 0.0153976 -0.00044132 -0.124762 -0.204491 9.79647
1.279 -0.00796882 0.00682626 -0.00759753 -0.179117 0.0916651 9.97768
1.28 0.006742 -0.00122955 0.00836808 -0.393504 -0.299398 9.90164
1.281 0.0219558 0.00738697 -0.00426016 -0.379086 -0.218775 9.81078
1.282 6.64259e-05 0.0321934 0.00710238 -0.381844 -0.419855 9.69762
1.283 -0.00232986 0.020336 -0.0161192 -0.160567 -0.225067 9.68833
1.284 0.0178918 -0.01446 -0.00100059 -0.0813685 -0.19192 9.79942
1.285 0.00536797 0.0183298 -0.0072505 -0.122145 -0.271755 9.68541
1.286 0.00563547 0.00478356 -7.00235e-05 -0.249581 0.0708901 9.88965
1.287 -0.013756 0.0103083 -0.00547561 -0.231181 -0.121049 10.0547
1.288 0.00124912 0.0151529 -0.00233509 -0.366786 -0.302895 9.95047
1.289 0.00602191 0.00394841 0.0146119 -0.211581 -0.351444 9.7676
1.29 -0.0157629 0.000253568 0.0215346 -0.269506 -0.159331 9.74413
1.291 0.00134544 0.0253741 0.0030588 -0.39545 -0.345068 9.76205
1.292 -0.0180389 -0.00110833 0.00558549 -0.149195 -0.068288 9.77035
1.293 0.0101394 0.0153379 0.00243043 -0.235596 -0.109205 9.7674
1.294 0.00566053 0.0111313 -0.00155073 -0.0484978 -0.326816 10.0427
1.295 -0.0140238 0.0176226 -0.0012618 -0.173351 -0.188942 10.0028
1.296 0.0115057 -0.000844282 -0.00809938 -0.16943 0.0290574 9.82486
1.297 -0.00387724 -0.00744878 0.0117454 -0.211697 -0.276645 9.70626
1.298 -0.00217507 0.00925658 -0.010685 -0.0261515 -0.0860111 9.92468
1.3 -0.0209459 -0.00537005 0.00898347 -0.0575328 -0.196242 9.98177
1.301 -0.0170171 0.005019 -0.0134047 -0.134282 -0.171315 9.74352
1.302 0.00206917 -0.00250612 0.0178653 -0.259301 -0.177035 9.96392
1.303 0.00913765 0.00150867 -0.007344 -0.387545 -0.214937 9.95082
1.304 -0.00982381 0.00355036 0.0215848 -0.23015 -0.034603 9.52878
1.305 0.00315497 -0.00460455 -0.00438922 -0.272241 -0.0253128 9.93593
1.306 -0.00351835 0.0118927 -0.0221911 -0.26927 -0.282904 9.83941
1.307 -0.0247625 0.00506424 0.00751248 -0.211025 -0.311407 9.85145
1.308 0.0108794 0.00828312 -0.0043413 -0.128468 -0.243896 10.094
1.309 -0.025179 0.00347672 0.0100484 -0.224861 -0.057773 9.68006
1.31 0.00109838 -0.00222519 -0.00625112 -0.0366846 -0.10785 9.69381
1.311 -0.00564749 -0.0145543 -0.00150992 -0.378808 -0.325682 9.92854
1.312 0.000984094 -0.00204892 -0.00580061 -0.199192 -0.12723 10.0794
1.313 -0.00651017 0.0288164 -0.0150621 -0.444337 -0.0429008 9.78419
1.314 -0.0160973 0.00130727 0.0144226 -0.0145088 0.0357671 9.93193
1.315 -0.00175159 -0.00761916 0.00352698 -0.0912932 -0.203765 9.82992
1.316 -0.0121971 0.00774267 -0.0149874 -0.190372 -0.414988 9.8383
1.317 -0.0206536 0.0114356 0.00582442 -0.342716 0.0365938 9.99753
1.318 -0.00304887 0.00560376 0.00691519 -0.423204 -0.410591 9.91622
1.319 0.000591247 0.00728987 -0.00598222 -0.391363 0.164622 9.92795
1.32 -0.00169562 0.00152564 -0.0173364 -0.506979 -0.000610055 9.83181
1.321 0.00322457 -0.00401568 0.00586542 -0.178228 -0.00912066 9.69329
1.322 -0.00470738 0.0250924 -0.018551 -0.234624 -0.156063 9.90211
1.323 0.0150174 -0.00193443 0.00700943 -0.26813 -0.17843 9.74938
1.324 -0.00814545 0.00713324 0.0270866 -0.271144 -0.0345747 9.65297
1.325 0.00272067 -0.00185943 0.000821625 -0.235647 -0.0254873 9.94429
1.326 -0.0214577 -0.00401382 0.012872 -0.22823 -0.424045 9.8555
1.327 0.0109428 0.0144114 -0.00300826 -0.172699 0.138492 9.91967
1.328 -0.00782528 0.00449475 0.0128093 -0.19175 -0.0934057 9.61839
1.329 -0.0108639 0.0156613 -0.0118689 -0.376099 -0.200708 9.77467
1.33 0.0114616 0.0127638 0.00526916 -0.402414 -0.245543 9.79981
1.331 -0.0121769 0.00540371 0.00929135 -0.172929 -0.08151 9.76647
1.332 0.00666123 0.0110325 -0.000656618 -0.104789 -0.158565 9.82493
1.333 0.00649278 0.0200644 -0.00446491 -0.204852 -0.0997536 9.92096
1.334 0.00411475 0.0140164 -0.00333814 -0.12524 -0.10009 9.96265
1.335 -0.00951721 0.00773559 0.00322582 -0.101288 -0.0963858 9.6557
1.336 0.00293721 0.006205 -0.000227201 -0.303151 -0.29589 9.88008
1.337 -0.0200929 0.0102837 0.0108593 -0.238734 -0.299254 10.0668
1.338 0.00848586 0.0131052 0.0112309 -0.0154 0.00923751 9.9026
1.339 -0.00848726 0.000392974 0.0176899 -0.0289687 0.00467304 9.82295
1.34 0.000597917 0.0166879 0.0139263 -0.237106 -0.0569989 9.7405
1.341 -0.00163585 0.0173634 -0.00237401 -0.271859 0.0515659 10.2796
1.342 -0.0232807 0.0176133 0.0120423 -0.216193 -0.354303 9.94887
1.343 -0.0174226 0.0106538 0.000884641 -0.125804 0.00124698 9.71582
1.344 -0.0087727 0.00852424 0.00212869 -0.355391 -0.33076 9.74412
1.345 0.000248681 -0.00921738 0.0129001 0.107509 -0.136147 9.70305
1.346 0.000725805 0.0125925 -0.0143226 -0.194166 -0.134195 9.97578
1.347 -0.0192442 0.00521635 -0.00302964 -0.226315 -0.0991099 9.88445
1.348 -0.0138873 0.00354972 -0.00612676 -0.0609892 0.101732 9.98274
1.349 0.0125019 0.0137551 0.0148637 -0.406104 0.125089 9.7977
1.35 0.00333895 -0.00890868 0.016548 -0.0843915 -0.202262 9.83765
1.351 -0.00513531 0.00359243 0.00269012 -0.0945087 -0.0430125 9.86555
1.352 -0.0180629 0.0167504 0.0104128 -0.165026 -0.00996364 9.77818
1.353 -0.00588578 0.00476076 -0.00332266 -0.108559 -0.10685 9.58138
1.354 -0.00835527 -0.000387092 -0.000933676 -0.412501 0.143792 10.0033
1.355 -0.00339976 -0.00122865 0.0272415 -0.251496 0.0123009 9.67338
1.356 0.0097972 0.0127081 0.00967978 -0.406911 -0.0472197 9.75208
1.357 -2.43763e-05 0.00120306 -0.00237453 -0.164716 -0.250206 9.81491
1.358 -0.00788 -0.0154239 -0.000144413 -0.0460647 -0.262514 10.0692
1.359 -0.00664135 0.00181911 0.0110266 -0.297336 -0.110696 10.0166
1.36 -0.00745408 0.0170074 -0.0153188 -0.119077 -0.352711 9.86103
1.361 -0.0117938 0.0169028 0.012836 -0.131526 -0.215778 9.95872
1.362 -0.00794067 -0.0024247 0.00393053 -0.0910974 -0.0867209 9.81
1.363 -0.0288506 -0.00436139 -0.0147533 -0.350017 -0.189075 9.76873
1.364 -0.0017389 0.0112924 -0.00617372 -0.237802 -0.359313 9.93683
1.365 0.00580208 0.000244487 6.11244e-05 -0.356322 -0.183575 9.83316
1.366 0.0153265 0.0149577 0.000734683 -0.42527 -0.39612 9.83206
1.367 -0.00994927 0.0170384 -0.0044076 -0.095558 0.091635 9.89717
1.368 0.0019605 0.0128473 -0.00204153 -0.278037 -0.182561 9.92845
1.369 0.000494643 -0.00680184 0.00278773 -0.270459 -0.263859 9.72753
1.37 -0.012524 0.0226491 0.00026615 -0.120727 -0.158782 9.94885
1.371 0.0267611 -0.019235 -0.00300701 -0.247361 -0.0568737 9.86829
1.372 -0.0217134 0.00130311 0.00251244 -0.195072 0.0553356 10.1859
1.373 -0.00611967 -0.00528889 0.00422933 -0.364291 -0.176995 9.91229
1.374 0.0170772 -0.00226684 0.0116003 -0.133171 -0.295338 9.99681
1.375 -0.00504689 0.00146198 -0.0146545 -0.297838 -0.249113 9.94718
1.376 0.00497178 -0.00353227 0.00648403 -0.106994 -0.233908 9.95404
1.377 -0.00228595 0.00781468 -0.00358965 -0.274616 -0.240165 9.81942
1.378 -0.0281916 0.00282056 0.00291302 -0.216893 -0.130769 9.91699
1.379 0.0140123 0.00102689 0.00586424 -0.115628 -0.199542 9.94572
1.38 0.00798989 -0.00727212 -0.00857726 -0.261371 -0.164038 9.72848
1.381 -0.0118536 0.00470159 -0.00784109 -0.346072 -0.183327 9.87709
1.385 -0.00242838 -0.00206796 0.00283725 -0.279392 0.0781858 9.86732
1.386 -0.00602457 0.0151596 0.00693322 -0.567282 -0.150405 9.88156
1.387 -0.0112191 0.0233704 -0.000720467 -0.255241 -0.230161 9.90031
1.388 -0.00189052 0.00821126 -0.000554246 -0.212544 -0.19429 9.79808
1.389 0.0137279 0.00389383 -0.0145107 -0.421248 -0.156165 9.82084
1.39 0.00288714 0.00114172 0.008041 -0.398489 0.182605 9.8166
1.391 0.0122769 0.0254601 -0.0048564 -0.351627 -0.176411 9.91229
1.392 -0.013873 0.00229571 -0.00125636 -0.424211 -0.25778 9.83867
1.393 0.0132686 -0.00254204 -0.00556816 -0.186192 -0.0772479 9.99361
1.394 0.00753096 -0.0124904 0.00536247 -0.186985 -0.235796 9.95594
1.395 0.00370888 -0.00376295 0.0169904 -0.217863 -0.237564 10.1692
1.396 0.00051627 0.0202693 -0.00964867 -0.421508 -0.303368 9.9016
1.397 -0.00847707 0.00686645 -0.00810807 -0.216105 0.000117703 9.61698
1.398 -0.0049074 0.0083574 7.34106e-05 -0.0646548 -0.233488 9.9758
1.399 -0.00643867 -0.00952312 0.00150828 -0.171992 -0.179973 10.101
1.4 -0.012322 0.00668291 0.0260407 -0.455683 -0.0451143 9.81816
1.401 -0.000838651 -0.00868076 0.0125538 -0.235635 -0.166682 9.81462
1.402 -0.0165109 0.0119379 -0.0172217 -0.377225 -0.0700657 9.75769
1.403 -0.00628241 0.0198557 0.00594265 -0.364221 -0.240338 9.7976
1.404 0.00229852 0.0170656 0.0132325 -0.461426 0.000215618 9.76061
1.405 -0.0164381 0.00540627 0.0122037 -0.080915 -0.138181 10.2753
1.406 0.00880147 0.00876472 0.00305061 -0.326435 -0.13077 9.83837
1.407 0.00865329 0.00837929 0.00371524 -0.454273 -0.0788601 9.93087
1.408 -0.011428 0.000223792 0.00936563 -0.316344 -0.394315 10.167
1.409 -0.0107846 0.0014782 -0.00307469 -0.481937 -0.348258 9.869
1.41 -0.00626335 0.00550601 0.0034643 -0.186363 -0.459902 9.91179
1.414 -0.0119187 0.00766428 -0.00179329 -0.282179 -0.271861 9.82458
1.415 -0.0174235 -0.000438657 0.00993307 -0.575068 -0.0835951 9.75785
1.416 0.0076133 0.010069 -0.0201403 -0.240753 0.0559986 9.73519
1.418 -0.00557852 -0.00698975 0.000554704 -0.223435 -0.190323 9.9367
1.419 -0.00914227 -0.00836604 -0.0186192 -0.356488 -0.450061 9.71532
1.42 -0.00423319 0.00853861 -0.00422401 -0.365297 -0.0499474 9.90335
1.421 0.00846717 -0.00894304 -0.0161014 -0.28146 -0.135949 9.81522
1.422 0.00471272 0.0019671 0.0077002 -0.240481 -0.137434 9.72275
1.423 0.013036 -0.000507455 0.00847842 -0.139761 -0.362789 9.92208
1.425 0.0144942 0.00171903 -0.00717056 -0.0488205 -0.108599 9.88892
1.426 -0.00994877 0.00258186 -0.0145944 -0.330501 0.0448714 10.0665
1.427 0.000214906 0.0177507 0.00508651 -0.419867 -0.086039 9.98321
1.428 0.00348537 -0.0246269 0.0101827 -0.254645 -0.13449 9.97652
1.43 -0.00212057 0.0190068 0.00248803 -0.341327 -0.176264 9.87844
1.431 0.00336142 0.0146548 -0.00938194 -0.485714 -0.471649 10.0436
1.433 -0.00711634 0.0154545 0.0173009 -0.247571 -0.186843 9.68472
1.434 -0.00863866 0.000329006 -0.0123739 -0.12197 -0.0596715 9.84297
1.435 -0.00736076 0.0101147 0.000543754 -0.426973 -0.288495 9.82926
1.436 0.00424319 0.00926269 -0.0133583 -0.125442 -0.0793971 9.86693
1.437 -0.0176995 0.013774 0.00353578 -0.463056 -0.134886 9.91719
1.438 -0.00488682 -0.00253851 -0.0044193 -0.216826 -0.0554363 9.88007
1.439 -0.0189535 0.00450858 0.00526453 -0.171365 -0.168709 9.89081
1.44 -0.0013079 -0.00615025 -0.0111779 -0.197411 -0.334611 9.78913
1.441 -0.0112886 0.0157197 -0.00393761 -0.548903 -0.190292 9.94459
1.442 -0.000115499 -0.00102832 -0.00543225 -0.122124 -0.141684 9.90769
1.443 -0.0107036 0.0193694 0.0119744 -0.167845 -0.433167 9.80261
1.444 -0.0092148 0.00708617 -0.00242484 -0.224639 -0.495154 10.0071
1.445 0.000704269 0.0134362 -0.0194875 -0.227608 -0.0961962 10.0408
1.446 -0.00435221 0.00900873 0.0101548 0.104139 -0.0928504 9.90111
1.447 0.013555 0.0100143 -0.0210625 -0.111642 -0.163307 9.75461
1.448 0.00625183 0.0164991 -0.00905118 -0.158574 -0.12947 9.85627
1.449 -0.00520248 0.015455 0.0118878 -0.343781 -0.17361 9.90888
1.45 0.0011121 0.00615583 0.00703723 -0.453927 -0.0240571 9.7882
1.451 -0.00152453 0.0216251 0.000400816 -0.194282 0.0619358 10.024
1.452 -0.0132305 -0.00868877 0.00945707 -0.468652 -0.118237 9.81827
1.453 0.0114436 0.0200668 0.00410438 -0.391648 0.0936798 9.93332
1.454 -0.00215432 -0.00879965 0.0115326 -0.282075 -0.269132 9.78454
1.455 -0.00747022 0.0135132 0.00724366 -0.309947 -0.0673259 9.86149
1.456 0.00161251 0.0188562 0.0162357 -0.437632 -0.0467916 9.75416
1.457 -0.00320345 0.0231755 -0.0163224 -0.285551 -0.122393 9.97545
1.458 0.00902769 0.00879342 -0.00398858 -0.0212834 -0.291128 9.94085
1.459 0.0066879 0.00977125 -0.00369287 -0.327527 -0.208174 9.86
1.46 0.0105793 -0.0164942 -0.003403 -0.444118 -0.0826921 9.87227
1.461 -0.00309543 -0.0012622 0.00586548 -0.345622 -0.12175 9.84799
1.462 0.00295829 0.00483357 -0.015039 -0.247308 -0.141315 9.81474
1.463 0.00675016 -0.00373332 -0.00622283 -0.213235 -0.244822 9.81472
1.464 -0.000449501 0.0115888 -0.0160316 -0.371235 -0.124251 10.06
1.465 -0.00762809 0.0279509 0.00315562 -0.447301 -0.545625 9.69632
1.466 -0.0202963 0.0042895 -0.0118048 -0.444744 -0.186887 9.93785
1.467 -0.0102423 0.00365287 -0.00398232 -0.40352 -0.0583879 9.92706
1.468 0.00240134 0.011147 -0.00113872 -0.123877 -0.0758594 9.90274
1.469 0.0102059 0.00297999 -0.0104467 -0.268165 -0.214608 9.95617
1.47 -0.0164954 0.00123771 0.0124426 -0.187004 -0.0421048 9.81664
1.471 0.00355348 0.00414371 0.0114452 -0.10594 0.00640441 9.91689
1.472 0.00794881 0.00417786 -0.0165198 -0.197445 -0.125059 9.74669
1.473 0.0090783 0.00934671 -0.00447949 -0.184982 -0.116881 9.92945
1.474 -0.00276605 0.00311742 -0.00322491 -0.275055 -0.404156 9.95021
1.475 -0.000217656 0.0156904 0.00565516 -0.117271 -0.0314447 9.88436
1.476 0.00188455 0.00176283 0.0021474 -0.0739174 -0.0702314 9.73276
1.477 0.0134756 0.0082524 -0.000508916 -0.295269 -0.240798 9.97068
1.478 -0.0129081 -0.001393 0.019241 -0.125271 0.0393828 10.0693
1.479 0.0121846 -0.0103118 -0.00431186 -0.337947 -0.163793 10.0775
1.48 0.00373387 0.0222002 -0.00258358 -0.228003 -0.162875 9.99784
1.481 0.00371861 0.0114448 -0.00398657 -0.217627 -0.051058 9.87231
1.482 -0.0143716 0.00268568 -0.00563673 -0.0608751 -0.0172602 9.77686
1.483 0.00419835 0.0158244 0.0179183 -0.113253 -0.223878 9.94212
1.484 0.00809724 -0.00194596 0.0102605 -0.226383 -0.126198 9.79324
1.485 0.00913307 -0.00109453 0.0214374 -0.174676 -0.0555633 9.72639
1.486 -0.0108181 0.000455414 0.0198118 -0.238444 0.000712588 9.89698
1.487 -0.00813784 -0.0021625 0.0119046 -0.197775 -0.0704821 9.94465
1.488 -0.0121996 0.0129235 0.00434462 -0.384028 -0.300743 9.96243
1.489 -0.00155159 0.00145769 0.00905258 -0.185892 -0.0174087 9.83754
1.49 -0.00330154 -0.000587503 0.01963 -0.203856 -0.0504153 9.81321
1.491 0.010866 0.00807446 0.00254117 -0.348293 -0.11883 9.86971
1.492 0.0184848 -0.0144694 0.0121772 -0.330396 -0.0653138 9.84253
1.493 -0.0127004 0.00847099 -0.0110646 -0.446343 -0.171338 10.0327
1.494 -0.00366587 -0.0135333 -0.00970197 -0.32138 -0.265328 9.84204
1.495 -0.0104475 0.0159932 0.0128339 -0.116083 -0.259689 9.91656
1.496 -0.00985766 -0.00240007 -0.0174178 -0.258313 -0.0620399 10.0172
1.497 8.14664e-05 -0.00899519 0.00934778 -0.26318 -0.140994 9.73361
1.498 -0.012573 0.0141305 0.0199446 -0.332789 -0.066093 10.0622
1.499 -0.00794061 0.026511 -0.0104635 -0.20989 -0.132095 10.1028
1.5 -0.00229836 -0.00984608 -0.0102505 -0.395743 -0.215259 9.8348
1.501 -0.0067468 0.0164635 -0.00927424 -0.312922 -0.0964057 9.81884
1.502 8.66588e-05 0.0086065 0.00331332 -0.218729 -0.323186 9.85319
1.503 0.00282949 0.00458908 -0.0084016 -0.249074 0.125475 9.69447
1.504 -0.000476773 0.00253632 -0.00130205 -0.495746 -0.11348 10.0428
1.505 -0.00903936 0.00807741 -0.0039449 -0.356709 -0.240964 9.83596
1.506 0.0173429 0.00104797 -0.00947684 -0.229495 -0.136608 9.98697
1.507 -0.0132833 0.0152093 -0.00780316 -0.24319 -0.184518 9.77284
1.508 -0.0131494 -0.00627461 -0.0114765 -0.0873857 -0.213581 9.76089
1.509 0.00867646 0.00725754 0.0137416 -0.221912 -0.226722 9.85431
1.51 -0.0141575 0.016873 -0.0119364 -0.0511041 -0.291455 9.9407
1.511 0.0189745 -0.0124194 0.0134568 -0.299202 0.0323994 9.80226
1.512 0.0141603 0.0246397 -0.0112957 -0.167139 -0.316951 9.9675
1.513 -0.0204415 -0.0112556 0.0134376 -0.21111 0.0370599 9.94131
1.514 -0.00368808 -0.0170756 -0.00892068 -0.179887 -0.151406 9.74136
1.515 0.00891599 0.0147212 0.0170074 -0.173787 -0.298242 9.83351
1.516 0.0186191 0.0069978 -0.00195963 -0.260276 -0.160867 9.65114
1.517 0.0115885 -0.00715126 0.0115323 -0.473597 -0.310282 9.91479
1.518 0.00266378 -0.00475512 0.0113455 -0.187138 -0.383705 9.73736
1.519 0.00997684 0.013669 -0.000767907 -0.445095 -0.0674038 9.68712
1.52 -0.00226211 -0.00871286 -0.00910519 -0.16878 -0.169167 9.84061
1.521 0.00151083 0.00475171 -0.00877432 -0.234966 -0.284733 9.95944
1.522 -0.00952794 0.0185854 -0.0069823 -0.35822 -0.159603 9.89734
1.523 -0.00328059 0.0127954 0.0100349 -0.358031 -0.101168 10.0349
1.524 0.0132363 0.0116425 0.0103776 -0.146352 -0.169318 10.1255
1.525 -0.0149953 0.0121104 0.0170166 -0.0853992 -0.137424 10.1259
1.526 -0.0152072 -0.00166422 0.00492391 -0.375191 -0.294716 9.71085
1.527 -0.00474953 0.0161003 0.00357749 -0.426048 -0.282105 9.96091
1.528 0.000376689 0.0157467 -0.00251848 -0.377475 -0.27009 9.78721
1.529 0.00638464 -0.00997195 0.00436894 -0.133334 -0.105686 9.89241
1.53 -0.0178289 0.0109081 -0.0085979 -0.155987 -0.109041 9.94377
1.531 -0.012021 0.00405266 0.00544124 -0.325217 -0.134614 9.97943
1.532 -0.00998287 -0.000306417 0.0298983 -0.272537 -0.122724 9.85606
1.533 -0.0139433 0.0286138 -0.0039203 -0.338863 -0.172552 9.84511
1.534 0.0048365 0.00752826 0.00591688 -0.336077 -0.210267 9.92058
1.535 0.00595929 -0.0119287 -0.0103275 -0.158651 0.004387 10.0291
1.536 0.000548136 0.00478158 -0.0109862 -0.168882 -0.00417923 10.0381
1.537 -0.00515845 0.014577 0.0206149 -0.377031 -0.285863 10.0479
1.538 0.00207821 0.0063493 -0.0179121 -0.227568 -0.251774 9.83515
1.539 0.00255151 0.00439786 -0.00459191 -0.345481 -0.291249 9.88382
1.54 -0.0022025 0.0165646 0.005586 -0.16005 -0.300649 9.86574
1.541 0.00374933 0.00431381 0.0125694 -0.0874615 -0.212376 10.0502
1.542 -0.0115454 -0.0141537 -0.00369081 -0.231862 -0.120214 9.95468
1.543 -0.00268393 -0.00434588 0.0129946 -0.0244583 -0.33433 9.98705
1.544 -0.020574 0.00781725 0.0186394 -0.200981 -0.46673 9.90949
1.545 0.00300968 -0.00984798 0.00185039 -0.367298 -0.120185 9.9486
1.546 -0.0083144 0.0121735 -0.00951284 0.105752 -0.0675932 9.84365
1.547 0.000623006 0.00982807 -0.0007617 -0.23042 -0.115902 9.90066
1.548 0.00855927 -0.00108158 -0.00336873 -0.226729 -0.192831 9.85229
1.549 -0.002265 0.0119028 0.0187507 -0.297908 -0.299277 9.78594
1.55 0.0141853 0.00370256 0.00342637 -0.459819 -0.151093 9.95582
1.551 0.0003856 0.00940692 -0.00360181 -0.479159 -0.0373538 9.78931
1.552 0.00823997 0.00684438 0.0058461 -0.31806 -0.269972 9.95398
1.553 0.00384087 0.00259788 -0.0108956 -0.435712 -0.0812957 9.79184
1.554 -0.00995621 -0.00845009 -0.00479181 -0.297816 -0.137209 9.49128
1.555 -0.00388084 -0.00154524 0.0110228 -0.147652 0.0283071 9.90637
1.556 0.00102433 0.0178086 -0.0107392 -0.380664 -0.154953 9.78555
1.557 0.0063161 -0.00118069 0.00643677 -0.136734 -0.352658 9.80567
1.558 -0.00241684 0.0223559 -0.00113848 -0.0965849 -0.316503 10.0377
1.559 -0.010004 0.0208355 0.0104331 -0.228058 -0.0331743 10.0518
1.56 0.00707073 0.0062074 -0.01683 -0.175055 -0.0895688 9.87786
1.561 -0.0223029 0.017233 -0.0012092 -0.243688 -0.00585866 9.80643
1.562 -0.01524 0.00330929 -0.00642915 -0.20864 -0.1916 9.84935
1.563 -8.00229e-05 0.00171075 -0.0139477 -0.337419 -0.0050508 9.8759
1.564 0.00421575 0.00455801 -0.00964737 -0.331744 0.00121015 10.0722
1.565 0.0099579 0.00622461 0.011351 -0.122475 -0.00769131 9.68886
1.566 0.0055275 0.0138394 -0.0155521 -0.309831 -0.295129 9.99497
1.567 0.00297469 0.00574506 0.00251555 -0.145667 -0.0447456 9.81693
1.568 0.00799654 0.00934685 -0.0258566 -0.127452 -0.0106252 9.78326
1.569 -0.00721452 0.0149973 -0.00590634 -0.0451762 -0.143779 9.76195
1.57 -0.0109529 -0.0151055 0.00566203 -0.20881 -0.268372 9.72844
1.571 0.00120178 0.0146343 0.00579861 -0.141903 -0.027336 10.0571
1.575 0.0229684 0.0131462 0.00884814 -0.227327 -0.183508 9.76562
1.576 -0.00628868 0.0178647 -0.0121927 -0.200364 -0.124036 9.81635
1.577 -0.0183442 0.0233386 0.00990851 -0.181971 -0.148934 9.80896
1.578 -0.00467137 0.0196838 0.00357278 -0.257208 -0.108031 9.93818
1.579 -0.0211255 -0.0043816 0.00335235 -0.252613 -0.042498 9.87846
1.58 -0.000521772 0.0086238 0.0172795 -0.244086 -0.0208675 9.7744
1.581 -0.0128354 0.00114352 -0.00220705 -0.423088 -0.169671 9.9262
1.582 0.00143468 -0.00642408 0.00690112 -0.19236 -0.295118 9.77741
1.583 -0.00718926 0.0218496 0.0306126 -0.172855 -0.0222572 9.8533
1.584 -0.00339685 0.0110878 -0.0121499 -0.408188 -0.0890706 9.97047
1.585 0.00508834 0.0087697 -0.0138139 -0.256258 -0.244612 9.6198
1.586 -0.0240685 0.00963467 -0.00918515 0.00446517 -0.122814 9.86203
1.587 0.000766227 0.00693743 0.00793272 -0.300893 -0.156794 9.86629
1.588 0.00339066 0.00404518 0.00100605 -0.0945648 -0.189055 9.99231
1.589 -0.0188218 -0.0148798 -0.00856442 -0.121564 -0.172905 10.0898
1.59 0.00401325 -0.00944243 0.0148177 -0.406645 -0.0333383 10.0902
1.591 -0.00307716 0.0317203 0.00263848 -0.365763 -0.0924818 9.7349
1.592 0.000423062 0.0122384 0.0049047 -0.0908554 -0.207531 9.81127
1.593 -0.00649112 0.0123181 0.0182508 -0.234123 0.00812683 9.71137
1.595 0.00430232 0.0129169 -0.0122322 -0.291863 -0.247951 10.0749
1.596 -0.00529319 0.0157176 0.0121573 -0.28378 -0.25939 9.857
1.597 -0.0104578 0.0148155 -0.0262466 -0.34916 -0.237305 9.80793
1.598 0.00347688 0.00727434 0.00261976 -0.0965983 0.00422049 9.6694
1.599 0.00743348 0.00948527 -0.000473226 -0.255816 -0.18164 9.92384
1.6 -0.00225566 0.00117404 0.00349248 -0.138108 -0.201384 9.83931
1.601 0.0206341 -0.0123954 -0.00963916 -0.227921 -0.199942 10.0201
1.602 0.0173521 0.0139948 -0.00888865 -0.373203 -0.222752 10.003
1.603 -0.00382539 0.00349749 -0.000385321 -0.33944 0.114198 10.0123
1.604 0.0184529 0.00637736 -0.000775348 -0.408818 -0.246377 9.92483
1.605 0.0103698 0.021165 0.00711778 -0.29512 0.060097 9.72008
1.606 -0.0118278 0.00296113 -0.00513137 -0.274851 -0.267777 9.78972
1.607 0.00107659 -0.00161448 -0.0267957 -0.13402 -0.232678 9.92533
1.608 -0.00313224 0.00700678 0.00557074 -0.127072 -0.169574 9.88674
1.609 -0.00562221 0.00606117 -0.00384409 -0.418509 -0.215879 9.91558
1.61 0.0139484 0.0144756 -0.00854355 -0.294354 0.072178 9.98884
1.611 -0.00967485 0.00915382 -0.00196407 -0.269418 -0.0177913 9.83141
1.612 0.00071516 0.0137021 -0.00400826 -0.32219 -0.217461 10.0672
1.613 0.0190588 0.0115457 0.000782885 -0.131994 0.0499332 9.80163
1.614 -0.0168486 0.00307753 -0.00759906 -0.0509663 -0.115342 9.87711
1.615 -0.0110251 0.000409398 0.0012487 -0.395151 -0.207788 9.76774
1.616 0.00105232 -0.00793084 0.0161697 -0.346149 -0.263966 9.85699
1.617 0.000161377 0.00578248 0.00274938 -0.15754 -0.0593659 10.043
1.618 -0.00127699 0.0155072 0.00235114 -0.386132 -0.101011 10.0087
1.619 0.00134608 0.0129008 -0.0192523 -0.271704 -0.140542 9.88912
1.62 0.00451062 0.00406178 0.00559088 -0.312184 -0.138078 10.0522
1.621 0.0067073 -0.00720094 0.0153401 -0.263436 0.0016279 9.71752
1.622 -0.00212353 -0.00936728 -0.0064543 -0.220923 -0.16133 10.2288
1.623 -0.00792407 -0.0126091 -0.00750022 -0.33807 -0.309209 9.62535
1.624 -0.0106923 -0.0140428 0.00112692 -0.302472 -0.109506 9.9158
1.625 0.00608984 -0.0151176 0.00140798 -0.17323 -0.155456 9.88052
1.626 0.0106269 -0.00823121 0.0212354 -0.261636 -0.31121 9.80192
1.627 -0.0131926 0.029002 0.0126344 -0.0839848 -0.0837983 10.0005
1.628 -0.0278194 0.00445707 0.0035043 -0.233868 0.1429 9.97577
1.629 -0.00787247 -0.0161322 -0.0141007 -0.1363 -0.0731619 10.2556
1.63 -0.0031157 -0.0021161 -0.0148202 -0.151791 -0.288779 9.82103
1.631 0.00100458 -0.00360303 -0.00287318 -0.197815 -0.244233 9.97116
1.632 0.00933643 -0.00147229 0.0138631 -0.30632 -0.211122 10.1048
1.633 0.00357263 0.00750263 0.00286394 -0.384116 -0.179965 9.82612
1.634 -0.0111282 0.00243513 -0.0171494 -0.17194 -0.0870593 9.84093
1.635 0.000186445 0.00467175 -0.00991425 -0.32529 -0.0946181 9.84195
1.636 -0.00836824 0.00855225 -0.00712258 -0.323226 -0.14545 9.72569
1.637 -0.0160953 -0.00391485 -0.00832289 -0.0790625 -0.326849 10.0778
1.638 -0.00472748 0.0211568 0.000842239 -0.30951 -0.0362169 9.83695
1.639 0.0185712 0.0207455 -0.00293067 -0.150798 -0.137269 9.86166
1.64 -0.00159867 -0.00679756 -0.0210487 -0.135881 -0.0762072 9.65788
1.641 0.00220095 0.0110225 -0.000441032 -0.285988 -0.213627 9.95679
1.642 -0.000702927 -5.95435e-05 0.00862473 -0.28389 -0.1579 9.76838
1.643 0.0144844 -0.0102458 0.00873232 -0.242901 -0.0831886 9.83853
1.644 -0.00131131 -0.0176331 0.00677442 -0.491453 -0.0909631 9.75181
1.645 0.00102927 0.0150927 0.0101701 -0.432285 -0.185057 9.75475
1.646 0.00202529 0.0171537 0.00467697 -0.168936 -0.145401 9.96554
1.647 0.00526421 0.0087928 0.00517856 -0.212507 -0.352784 9.83691
1.648 0.00225459 0.00177725 0.0111521 -0.239173 -0.449159 9.87175
1.649 0.00047653 0.015136 0.0114473 -0.44394 0.0925689 9.86881
1.65 0.00172201 -0.00936777 -0.0163018 -0.304348 -0.119903 9.76374
1.651 -0.00823776 -0.00547654 0.00665152 -0.0956472 -0.208567 9.67004
1.652 0.00037907 0.0184378 0.00858319 -0.281045 -0.243863 9.67877
1.653 0.00431315 0.0040141 0.00977846 -0.262503 -0.196748 9.95857
1.654 0.0029842 0.0139127 -0.00879787 -0.443779 -0.188061 9.84442
1.655 0.00167795 0.0224211 0.00672641 -0.287209 -0.125022 10.1179
1.656 -0.0336603 0.0040596 -0.00161097 -0.0477579 -0.139342 10.0192
1.657 -0.0107988 0.0176212 -0.0238328 -0.0744741 0.147832 9.71966
1.658 -0.00510873 0.0116413 -0.0108908 -0.238623 -0.0290212 9.84754
1.659 0.00881058 0.00190006 -0.00402204 -0.161872 -0.246387 9.70394
1.66 -0.00903803 -0.0142027 0.00289014 -0.317819 -0.238339 9.46482
1.661 -0.0144259 0.0102941 -0.00808115 -0.323425 -0.223561 9.90198
1.662 0.000975776 0.0161285 0.00287797 -0.309453 -0.0916604 9.8383
1.663 -0.0216449 0.0088829 0.012824 -0.402191 -0.0255852 9.7709
1.664 0.00072983 0.00656533 0.00247762 -0.311711 0.0224442 10.0048
1.665 0.000242492 -0.00966749 0.00681548 -0.567511 -0.286759 9.81473
1.666 -0.0127303 -0.012221 0.0114333 -0.363521 0.0884852 10.081
1.667 0.0011201 -0.000770058 -0.0190386 -0.414448 -0.335059 9.67565
1.668 0.0144505 0.00800458 -0.0133066 -0.276338 -0.140658 9.75468
1.669 -0.0188671 0.0220449 0.00237436 -0.436723 0.048682 9.9413
1.67 0.00836529 0.0120113 -0.00142539 -0.400442 -0.208412 9.64594
1.671 -0.0107552 -0.00856136 -0.00356516 -0.301193 -0.273607 9.85223
1.672 -0.00362718 0.0205358 0.00349991 -0.241793 0.0728043 9.64031
1.673 0.0124142 0.0108913 0.0060126 -0.0517597 -0.1609 9.823
1.674 -0.00555883 0.0179437 -0.00915374 -0.248641 -0.0782446 9.89815
1.675 0.00215199 0.00857323 -0.00274876 -0.261443 -0.0798316 9.89062
1.676 0.0139173 0.00334329 -0.00147678 -0.057566 0.158106 9.86572
1.677 0.0167897 0.0107406 -0.00891348 -0.191521 -0.223359 9.78593
1.678 -0.00325555 0.00583353 -0.00283931 -0.392184 -0.207928 9.79876
1.679 0.000842175 -0.00513498 -0.000363418 -0.303363 -0.0777696 9.88416
1.68 0.0204134 0.00469123 0.011024 -0.345238 -0.197003 10.1414
1.681 -0.0172098 0.00242176 0.00454728 -0.245504 0.0122447 9.79964
1.682 -0.0108845 0.00343659 0.00612875 -0.156603 -0.108432 9.74392
1.683 -0.00169134 0.0178981 -0.0120978 -0.302834 -0.210545 9.90455
1.684 -0.00608222 0.00790515 0.00863828 -0.311365 -0.0422909 9.81956
1.685 0.00839832 0.0190446 0.00784079 -0.182033 -0.186299 9.77225
1.686 -0.00294516 0.00293845 0.0146637 -0.154752 -0.268758 9.92174
1.687 0.0070403 0.00893947 0.000546738 -0.186454 -0.213021 10.1239
1.688 -0.0078496 0.0101342 0.00535189 -0.188841 -0.479026 9.72711
1.689 0.00873819 0.0185271 -0.0059908 -0.0946584 -0.0244824 9.78698
1.69 -0.0157725 0.00315404 -0.0163506 -0.242153 -0.174351 9.89754
1.691 -0.0105905 0.0206987 -0.000352517 -0.390395 -0.455563 9.60032
1.692 -0.0120334 -0.00945342 -0.00560764 -0.23918 -0.276205 9.99721
1.693 -0.00164914 0.00431765 -0.00708381 -0.345189 -0.170204 10.0544
1.694 -0.00282177 0.00485739 -0.00424999 -0.0030453 -0.133961 9.75108
1.695 0.0144065 0.00278325 -0.0171118 -0.305708 -0.0957291 9.66229
1.696 -0.00425679 -0.00865193 -0.00339433 -0.080709 -0.21967 9.8398
1.697 -0.0173857 -0.00348285 -0.0160359 -0.249471 -0.176561 9.92131
1.698 -0.0133514 0.0248767 -0.00968261 -0.3603 -0.233769 9.82322
1.699 -0.00154776 0.0135908 0.00898507 -0.159031 -0.0959953 9.94829
1.7 0.00288042 0.0141476 0.00124821 -0.337613 -0.270758 10.036
1.701 -0.0100379 0.00881273 0.00096227 -0.119166 -0.19149 9.83688
1.702 0.0178852 0.00645917 0.0184034 -0.166466 -0.235599 9.70575
1.703 -0.0018051 -0.00158279 0.00483591 -0.287114 0.155677 9.90358
1.704 0.0147222 0.000778775 0.00292149 -0.29834 -0.146216 9.867
1.705 0.0012309 0.00973372 -0.00770449 -0.0351504 -0.157829 10.0747
1.706 0.00188316 0.0177397 -0.00028206 -0.444909 0.0282341 9.89729
1.707 -0.00664429 -0.00586637 0.0114361 -0.312468 -0.300994 9.77674
1.708 -0.00608946 -0.00483664 -0.00551225 -0.470192 -0.0656975 9.86571
1.709 -0.0122909 0.000818924 -0.00100081 -0.004016 -0.0846782 9.76262
1.71 0.00101351 -0.000141291 -0.00113076 -0.214266 -0.366246 9.91647
1.711 0.0160414 0.0198304 0.00467361 -0.026667 0.0823192 9.72632
1.712 0.00978732 0.00833269 -0.0153085 -0.181834 -0.158809 9.74553
1.713 -0.00901871 0.011449 0.000745535 -0.253037 -0.170758 9.90902
1.714 0.0093865 -0.00583417 0.0143351 -0.101662 -0.217254 9.79387
1.715 -0.00542057 0.0162564 0.00321818 -0.271652 -0.135022 9.78052
1.716 -0.0165133 -0.00132101 -0.00159245 -0.178468 -0.0677922 9.9459
1.717 0.00648343 0.0209734 -0.00400017 -0.0874574 -0.108929 9.81222
1.718 -0.0222963 -0.019354 -0.0035742 -0.0106624 -0.070391 9.90741
1.719 -0.0132517 0.000562435 -0.0243223 -0.132646 -0.137994 10.0343
1.72 -0.00754773 0.0146332 -0.00484327 -0.333872 -0.10805 9.70855
1.721 0.00236565 0.0102669 0.00471498 -0.498486 -0.188872 9.62749
1.722 0.0192903 -0.00734027 0.00884349 -0.135219 -0.0198754 9.94333
1.723 -0.00371585 -0.0114461 0.00675109 0.0437563 -0.18264 9.86482
1.724 0.00469086 0.021793 -0.0107448 -0.125751 -0.137728 9.81448
1.725 0.00227425 0.00690777 0.00558352 -0.141743 -0.19767 9.94185
1.726 0.00581108 -0.00211062 -0.00978283 -0.169908 -0.197386 9.75804
1.727 -0.0242451 -0.00232242 0.0157786 -0.20939 -0.235686 9.93201
1.728 -0.00827562 0.0149487 -0.00562237 -0.0833514 -0.171336 9.93717
1.729 0.0131696 0.00827907 -0.00711453 -0.23885 -0.32255 9.84313
1.73 -0.0118739 -0.00253274 0.00342399 -0.192037 -0.127981 9.98027
1.731 0.0124106 -0.00457262 -0.00431142 -0.220167 -0.0885146 9.83115
1.732 -0.0138092 -0.0038706 -0.000212239 -0.46154 -0.0480282 9.83005
1.733 0.0213779 0.0155334 -0.016266 -0.323507 -0.139716 9.74202
1.734 0.00508481 -0.0115659 -0.0161894 -0.177451 -0.0367587 9.95612
1.735 -0.00600863 0.0157652 -0.0291458 -0.310171 -0.23948 9.98963
1.736 0.0107493 0.025672 0.000526242 -0.309854 -0.199046 9.84276
1.737 -0.00712224 -0.00773893 -0.00620698 -0.124057 -0.268295 9.89075
1.738 0.0237572 -0.00246253 -0.00266802 -0.333842 -0.315824 9.90814
1.739 0.0031591 -0.0168172 0.00951399 -0.287055 -0.289582 9.96466
1.74 -0.0104188 0.0295455 -0.00398549 0.0241653 -0.151648 9.77641
1.741 -0.0172212 -0.0162642 0.000985789 -0.0901989 -0.436813 9.80267
1.742 -0.00472537 0.0203706 0.0193984 -0.296548 -0.14947 9.82792
1.743 0.00217266 0.00225914 -0.00142088 -0.0116844 -0.0710395 10.1055
1.744 0.0117346 0.00217901 0.00772438 -0.480438 -0.375699 10.2395
1.745 0.00980952 0.00156802 0.0117465 -0.466296 -0.0797378 10.168
1.746 0.00450538 0.00663164 0.000705897 -0.254304 0.0119181 10.1823
1.747 -0.00676581 0.0115401 0.000386218 0.0513386 -0.150797 10.2612
1.748 -0.00874752 0.0176875 -0.00808175 -0.288074 -0.027765 10.1641
1.749 0.0217141 0.0272581 -0.017502 -0.139297 -0.188279 10.2481
1.75 -0.00973857 0.0220149 -0.00725645 -0.145654 0.151495 10.1112
1.751 -0.03053 0.0171424 -0.0245324 -0.200956 -0.19531 10.3188
1.752 0.00461556 0.0159975 0.00234037 -0.163724 -0.0269735 10.509
1.753 -0.00250625 8.48201e-05 0.00393413 -0.234256 -0.251597 10.431
1.754 -0.00502849 0.000162855 -0.0213244 -0.352965 -0.0132256 10.6331
1.755 -0.0255089 -0.00340461 -0.0203996 -0.297651 -0.179878 10.2104
1.756 -0.0226053 -0.00750867 -0.0219862 -0.0611599 -0.045909 10.1129
1.757 -0.0114316 0.00475909 0.00339964 -0.18942 -0.267437 10.3664
1.758 -0.015462 0.00557522 -0.0086027 -0.206149 0.0511336 10.2351
1.759 -0.0251754 0.00770832 -0.0172942 -0.0488289 -0.186868 10.3074
1.76 -0.00372266 0.00531204 -0.0257209 -0.307422 -0.326189 10.2402
1.761 -0.0261204 0.00519443 0.00320788 -0.318227 -0.267706 10.5109
1.762 -0.00449027 0.0237836 0.000780519 -0.285593 -0.334829 10.3401
1.763 -0.0347636 -0.000883901 -0.023989 -0.222484 -0.258245 9.99499
1.764 -0.0395276 0.00619151 -0.00992716 -0.339015 0.0360874 10.1394
1.765 -0.0365304 0.00383904 -0.023843 -0.425841 -0.249401 10.3692
1.766 -0.031491 0.00870939 -0.0310772 -0.405435 0.124541 10.3822
1.767 -0.0311649 -0.00638791 -0.0180139 -0.351781 -0.24481 10.2045
1.768 -0.0198725 0.0268873 0.0119143 -0.0369654 0.0500528 10.5297
1.769 -0.0551494 -0.000272191 -0.0419553 -0.263973 -0.00878317 10.3602
1.77 -0.0265862 -0.00238878 -0.0300679 -0.233406 -0.132409 10.3483
1.771 -0.0577641 0.00188741 -0.0131796 -0.00693312 -0.296922 10.3378
1.772 -0.047696 0.00999821 -0.0316362 -0.117555 0.0673742 10.2515
1.773 -0.0559998 0.00700479 -0.0320155 -0.00416269 -0.235061 10.2751
1.774 -0.0589187 0.0135141 -0.0280437 -0.124347 -0.101286 10.0473
1.775 -0.0516276 0.0113072 -0.0311601 -0.263249 -0.0805033 10.1579
1.776 -0.0565183 0.0227212 -0.0328261 -0.375002 -0.14678 10.2122
1.777 -0.0601035 -0.0105209 -0.020303 0.0185702 -0.225327 10.1811
1.778 -0.040808 0.00412297 -0.0239016 -0.395376 -0.219352 10.1923
1.779 -0.0564555 0.00357068 -0.0350639 -0.287083 -0.0995536 9.98413
1.78 -0.0673661 -0.000261444 -0.0339356 -0.400089 0.0875139 10.1737
1.781 -0.0612316 0.00370024 -0.0198148 -0.126271 -0.233901 10.0307
1.782 -0.0618643 0.00503143 -0.0344815 -0.248798 -0.123204 10.1396
1.783 -0.0829357 0.00185275 -0.0298784 -0.252361 -0.131054 10.1623
1.784 -0.0719104 0.00399557 -0.0510944 -0.200819 -0.238316 9.99498
1.785 -0.0927967 0.0122019 -0.0331727 -0.293354 -0.0863117 9.88028
1.786 -0.0632553 -0.0169008 -0.0279653 -0.111792 -0.196736 9.90923
1.787 -0.0653873 0.0123097 -0.0346233 -0.197289 -0.216208 10.107
1.788 -0.0733219 0.00591354 -0.0482562 -0.21734 -0.117951 10.26
1.789 -0.0789394 0.0210585 -0.0539817 -0.52127 -0.130702 10.0811
1.79 -0.105056 0.00506395 -0.0634814 -0.270886 -0.224549 10.3184
1.791 -0.0800171 0.00520349 -0.0502214 -0.166976 -0.00273166 10.0187
1.792 -0.0832097 0.00316709 -0.0579438 -0.294362 -0.142628 10.0573
1.793 -0.0987917 -0.0206334 -0.0355431 -0.448669 -0.181401 10.0571
1.795 -0.0688808 0.00107818 -0.0572703 -0.196361 0.0263005 9.89649
1.796 -0.0963292 0.0123344 -0.035169 -0.219341 -0.0571258 10.1138
1.797 -0.0704742 -0.0010023 -0.0518266 -0.138011 0.00055934 9.9821
1.798 -0.0937534 0.0171194 -0.0526253 -0.134606 -0.16676 9.90759
1.799 -0.0874753 -0.00182048 -0.0638455 -0.18865 -0.221779 10.1345
1.8 -0.0948096 0.00207831 -0.0691386 -0.331943 -0.0250168 9.90996
1.801 -0.0897976 -0.00357819 -0.082887 -0.286657 -0.219285 9.97359
1.802 -0.124173 0.00249626 -0.055013 -0.107084 -0.234707 9.948
1.803 -0.108924 0.00874009 -0.0719382 -0.288623 -0.100813 10.105
1.804 -0.0914729 -0.00574243 -0.0863028 -0.19353 -0.333054 10.0717
1.805 -0.13664 0.0195954 -0.0608378 -0.139611 -0.237588 9.84976
1.806 -0.106 0.00287222 -0.0542875 0.0898804 -0.270426 9.98818
1.807 -0.107331 0.0137767 -0.0503769 -0.092375 -0.119899 9.67378
1.808 -0.121966 0.00344938 -0.0709927 -0.193664 -0.199908 9.95004
1.809 -0.111841 0.00906379 -0.0512101 -0.434161 -0.20417 9.79777
1.81 -0.117841 -0.00472985 -0.0673959 -0.180092 -0.111205 10.0041
1.811 -0.130352 0.00660498 -0.0770063 -0.238934 -0.169442 10.1062
1.812 -0.0985029 0.00488244 -0.0682395 -0.192679 -0.0731857 10.0405
1.813 -0.117203 0.00417035 -0.0710824 -0.440028 -0.243529 9.93259
1.814 -0.11861 0.0163876 -0.0788666 -0.22916 -0.159781 9.97812
1.815 -0.108274 0.0338574 -0.0838185 -0.302369 -0.00572162 10.0087
1.816 -0.130998 0.00999239 -0.0792909 -0.352942 -0.0184504 9.88223
1.817 -0.125606 0.0346006 -0.0812601 -0.0774778 -0.255661 10.0902
1.818 -0.127092 0.0113478 -0.0742514 -0.430657 -0.101994 9.84987
1.819 -0.141156 0.0279849 -0.0892673 -0.113816 -0.187811 9.85823
1.821 -0.132735 0.0158071 -0.0749246 -0.0909355 -0.198669 9.99437
1.822 -0.137415 0.0127573 -0.0809304 -0.21953 -0.279162 9.93824
1.823 -0.136059 0.0246107 -0.0757371 0.00165911 -0.239158 9.96567
1.824 -0.137344 0.00145028 -0.0892573 -0.261289 -0.247863 10.0635
1.825 -0.157829 0.0195453 -0.0905403 -0.126351 -0.165201 9.92826
1.827 -0.132436 -0.000837236 -0.0722656 -0.075205 -0.0841804 9.89603
1.828 -0.153293 0.0116477 -0.0871628 -0.043839 -0.0896945 9.87515
1.829 -0.15707 0.0318169 -0.0962969 -0.209022 -0.352633 9.67815
1.83 -0.143439 0.0256215 -0.0975599 -0.43344 0.0364824 10.0784
1.831 -0.147858 -3.74787e-05 -0.105828 -0.34784 -0.0950116 9.797
1.832 -0.148275 0.0235138 -0.0790558 -0.257755 -0.221891 10.01
1.833 -0.139787 0.0119017 -0.103356 -0.161025 -0.233093 9.82028
1.834 -0.151317 0.00998524 -0.110722 -0.203393 0.0245928 10.0426
1.835 -0.159487 0.0161201 -0.103883 -0.32082 -0.15638 9.87561
1.836 -0.160823 0.0165294 -0.082468 -0.503353 0.0265841 9.85768
1.837 -0.160061 0.0110378 -0.115853 -0.260425 -0.279497 9.79484
1.838 -0.154511 0.00990725 -0.107353 -0.0873125 -0.0943998 9.86686
1.839 -0.16629 0.0257311 -0.108045 -0.353997 -0.160081 9.72546
1.84 -0.169901 0.00122249 -0.117879 -0.131564 -0.131985 9.88643
1.841 -0.160691 0.00425338 -0.0993478 -0.177626 -0.224384 9.6796
1.842 -0.179227 0.0189369 -0.121376 -0.209432 -0.254147 9.46759
1.843 -0.162598 0.00612436 -0.0847057 -0.330183 -0.228215 9.89507
1.844 -0.169325 0.015364 -0.112588 -0.235395 -0.125536 9.96767
1.845 -0.18228 0.0156158 -0.11317 -0.453874 -0.0856032 9.86726
1.846 -0.145278 0.0315803 -0.0990388 -0.0458635 -0.150952 9.85888
1.847 -0.15621 0.0256542 -0.133286 -0.162284 -0.17315 9.75456
1.848 -0.178384 0.0227038 -0.103052 -0.462701 -0.0120554 9.82168
1.849 -0.180088 0.0229994 -0.102839 -0.0381874 -0.315325 9.8673
1.85 -0.166946 0.0312519 -0.114145 -0.415271 -0.262721 9.78284
1.851 -0.169972 0.00691381 -0.113953 -0.34479 -0.0711066 9.82944
1.852 -0.157615 0.0384957 -0.108406 -0.261638 -0.0880898 10.0415
1.853 -0.173875 0.0220943 -0.101218 -0.155531 -0.277161 9.87847
1.854 -0.165457 0.0287244 -0.124977 -0.294633 -0.19747 9.85046
1.855 -0.189545 0.0113361 -0.126818 -0.32653 -0.165304 10.0964
1.856 -0.165583 0.0255987 -0.0932938 -0.130625 -0.31468 9.91492
1.857 -0.162431 0.0153139 -0.118018 -0.248319 -0.0917378 10.1785
1.858 -0.183142 0.0130295 -0.123121 -0.101299 -0.00928869 9.91894
1.859 -0.186349 0.0268299 -0.109858 -0.240032 -0.0674107 9.84001
1.86 -0.1857 0.0237862 -0.115847 -0.048651 -0.142814 9.77188
1.861 -0.195593 0.00872565 -0.133336 0.0257488 -0.123993 9.84207
1.862 -0.215204 0.038131 -0.127375 0.0524681 -0.30531 9.94679
1.863 -0.177825 0.01554 -0.120388 -0.0921673 -0.0191577 10.0486
1.864 -0.1923 0.0237856 -0.150024 -0.458665 -0.325962 9.76099
