t wx wy wz ax ay az

0.0 -0.18578 0.0289335 -0.0711827 -0.000683668 -0.00382097 13.3551
0.001 -0.185911 0.0285332 -0.0717416 -0.000680975 -0.00383242 13.3516
0.002 -0.186037 0.0281341 -0.0723013 -0.000678494 -0.0038442 13.3483
0.003 -0.186153 0.027734 -0.0728616 -0.000675851 -0.00385544 13.3441
0.004 -0.186262 0.0273327 -0.0734205 -0.000673296 -0.00386685 13.34
0.005 -0.186362 0.02693 -0.0739817 -0.00067079 -0.00387842 13.3358
0.006 -0.186455 0.0265271 -0.0745435 -0.000668292 -0.00389011 13.3317
0.007 -0.186541 0.0261218 -0.0751068 -0.00066576 -0.00390192 13.3275
0.008 -0.186619 0.0257152 -0.0756714 -0.00066315 -0.00391383 13.3234
0.009 -0.186691 0.025305 -0.076238 -0.000660425 -0.00392579 13.3192
0.01 -0.186755 0.0248922 -0.0768056 -0.000657549 -0.00393778 13.3151
0.011 -0.186811 0.0244775 -0.0773718 -0.00065449 -0.00394977 13.311
0.012 -0.186858 0.0240581 -0.0779412 -0.000651221 -0.00396173 13.3069
0.013 -0.186899 0.0236338 -0.0785098 -0.000647718 -0.00397361 13.3027
0.014 -0.18693 0.0232034 -0.0790795 -0.000643965 -0.00398541 13.2986
0.015 -0.18695 0.0227676 -0.0796493 -0.000639951 -0.00399708 13.2945
0.016 -0.186962 0.0223258 -0.080223 -0.000635671 -0.00400861 13.2904
0.017 -0.186963 0.0218772 -0.0807962 -0.000631126 -0.00401998 13.2863
0.018 -0.186954 0.0214214 -0.0813676 -0.000626324 -0.00403118 13.2822
0.019 -0.186933 0.0209579 -0.0819416 -0.000621279 -0.00404221 13.2781
0.02 -0.186901 0.0204843 -0.0825182 -0.00061601 -0.00405306 13.2741
0.021 -0.186854 0.0200003 -0.0830947 -0.000610539 -0.00406375 13.27
0.022 -0.186795 0.0195057 -0.083673 -0.000604896 -0.00407428 13.2659
0.023 -0.186723 0.0190025 -0.0842508 -0.000599113 -0.00408468 13.2618
0.024 -0.186638 0.0184886 -0.0848301 -0.000593227 -0.00409498 13.2578
0.025 -0.186537 0.0179673 -0.0854081 -0.000587275 -0.00410522 13.2537
0.026 -0.186425 0.0174341 -0.0859864 -0.000581295 -0.00411544 13.2497
0.027 -0.186299 0.0168919 -0.0865694 -0.000575322 -0.00412567 13.2456
0.028 -0.186159 0.0163432 -0.0871535 -0.000569393 -0.00413596 13.2416
0.029 -0.186005 0.0157863 -0.0877366 -0.000563543 -0.00414635 13.2376
0.03 -0.18584 0.0152229 -0.0883207 -0.000557801 -0.00415688 13.2335
0.031 -0.185665 0.0146524 -0.0889042 -0.000552196 -0.0041676 13.2295
0.032 -0.185476 0.0140735 -0.0894898 -0.000546754 -0.00417857 13.2255
0.033 -0.185278 0.013493 -0.0900779 -0.000541493 -0.00418981 13.2215
0.034 -0.18507 0.0129063 -0.0906665 -0.00053643 -0.00420138 13.2174
0.035 -0.184856 0.012317 -0.0912547 -0.000531573 -0.0042133 13.2134
0.036 -0.184633 0.0117235 -0.0918449 -0.000526927 -0.00422561 13.2094
0.037 -0.184403 0.0111273 -0.0924376 -0.000522492 -0.00423832 13.2054
0.038 -0.184167 0.0105285 -0.0930291 -0.000518261 -0.00425146 13.2014
0.039 -0.183927 0.00992834 -0.0936221 -0.000514223 -0.00426502 13.1974
0.04 -0.183684 0.00932448 -0.0942161 -0.000510363 -0.00427902 13.1935
0.041 -0.18344 0.00872308 -0.0948106 -0.000506662 -0.00429344 13.1895
0.042 -0.183194 0.00812085 -0.095405 -0.0005031 -0.00430827 13.1855
0.043 -0.182946 0.00751867 -0.0960025 -0.000499654 -0.00432348 13.1815
0.049 -0.181445 0.00390458 -0.0995983 -0.000480059 -0.00442148 13.1587
0.05 -0.181198 0.00330059 -0.1002 -0.000476779 -0.0044387 13.1553
0.051 -0.180948 0.00269609 -0.100803 -0.000473439 -0.00445606 13.1521
0.052 -0.180698 0.00208903 -0.101405 -0.000470002 -0.00447344 13.1488
0.053 -0.180448 0.00147956 -0.102009 -0.000466476 -0.00449087 13.1457
0.054 -0.180192 0.00086819 -0.102613 -0.0004627 -0.00450778 13.1416
0.055 -0.179935 0.00025182 -0.10322 -0.000458804 -0.0045246 13.1376
0.056 -0.17967 -0.000368824 -0.103824 -0.000454787 -0.00454131 13.1336
0.057 -0.179401 -0.000993606 -0.104432 -0.000450654 -0.00455788 13.1295
0.058 -0.179129 -0.00162431 -0.105041 -0.000446411 -0.0045743 13.1255
0.059 -0.178844 -0.00225791 -0.105655 -0.000442068 -0.00459057 13.1215
0.06 -0.178555 -0.00289884 -0.106266 -0.00043764 -0.00460668 13.1175
0.061 -0.178257 -0.00354297 -0.106879 -0.000433142 -0.00462266 13.1135
0.062 -0.177948 -0.0041922 -0.107493 -0.000428595 -0.00463853 13.1095
0.063 -0.177631 -0.00484627 -0.108106 -0.000424018 -0.00465433 13.1055
0.064 -0.177304 -0.0055077 -0.10872 -0.000419431 -0.00467007 13.1016
0.065 -0.176967 -0.00617357 -0.109335 -0.000414853 -0.00468579 13.0976
0.066 -0.176619 -0.00684515 -0.109952 -0.000410306 -0.00470155 13.0937
0.067 -0.176261 -0.00751741 -0.110569 -0.000405809 -0.00471739 13.0897
0.068 -0.175892 -0.00819598 -0.111187 -0.00040138 -0.00473337 13.0858
0.069 -0.175513 -0.00887778 -0.111805 -0.000397036 -0.00474954 13.0819
0.07 -0.175125 -0.00956352 -0.112426 -0.000392792 -0.00476595 13.0779
0.071 -0.174728 -0.0102506 -0.113045 -0.000388659 -0.00478266 13.074
0.072 -0.174325 -0.010941 -0.113666 -0.000384647 -0.00479972 13.0701
0.073 -0.173914 -0.0116367 -0.114288 -0.000380771 -0.00481722 13.0664
0.074 -0.173499 -0.012334 -0.114912 -0.000377016 -0.00483511 13.0625
0.075 -0.173081 -0.0130315 -0.115536 -0.000373393 -0.00485347 13.0586
0.076 -0.172658 -0.0137315 -0.116163 -0.0003699 -0.00487234 13.0547
0.077 -0.172232 -0.0144337 -0.11679 -0.00036653 -0.00489174 13.0508
0.078 -0.171806 -0.0151358 -0.117418 -0.000363281 -0.00491174 13.0471
0.079 -0.171379 -0.0158393 -0.118047 -0.000360136 -0.00493224 13.0432
0.08 -0.170954 -0.0165444 -0.118674 -0.000357091 -0.00495329 13.0394
0.081 -0.17053 -0.0172486 -0.119304 -0.000354137 -0.00497488 13.0355
0.082 -0.170108 -0.0179531 -0.119935 -0.000351261 -0.004997 13.0317
0.083 -0.16969 -0.0186583 -0.120566 -0.000348447 -0.00501962 13.0278
0.084 -0.169277 -0.0193624 -0.121197 -0.000345683 -0.00504271 13.024
0.085 -0.16887 -0.0200684 -0.121829 -0.000342956 -0.00506624 13.0202
0.086 -0.168467 -0.0207723 -0.122463 -0.000340255 -0.00509017 13.0164
0.087 -0.168067 -0.0214795 -0.123097 -0.00033757 -0.00511445 13.0126
0.088 -0.167674 -0.0221868 -0.123732 -0.000334891 -0.00513904 13.0088
0.089 -0.167285 -0.022895 -0.12437 -0.000332212 -0.00516388 13.005
0.09 -0.1669 -0.023602 -0.125007 -0.000329527 -0.00518892 13.0012
0.091 -0.16652 -0.0243122 -0.125645 -0.000326833 -0.00521412 12.9974
0.092 -0.166143 -0.0250263 -0.126285 -0.000324128 -0.00523943 12.9936
0.093 -0.165769 -0.0257376 -0.126926 -0.000321414 -0.00526479 12.9899
0.094 -0.165398 -0.0264531 -0.127565 -0.000318694 -0.00529018 12.9861
0.095 -0.165028 -0.0271691 -0.128208 -0.000315973 -0.00531555 12.9823
0.096 -0.164656 -0.0278866 -0.12885 -0.000313256 -0.00534087 12.9786
0.097 -0.164287 -0.0286037 -0.129495 -0.000310549 -0.00536612 12.9748
0.098 -0.163914 -0.0293227 -0.130138 -0.000307862 -0.00539128 12.9711
0.099 -0.163538 -0.0300435 -0.130784 -0.000305203 -0.00541635 12.9674
0.1 -0.16316 -0.0307683 -0.13143 -0.000302584 -0.00544134 12.9636
0.101 -0.162778 -0.0314947 -0.132078 -0.000300014 -0.00546625 12.9599
0.102 -0.162389 -0.032222 -0.132725 -0.000297504 -0.00549108 12.9562
0.103 -0.161998 -0.0329508 -0.133373 -0.000295061 -0.00551587 12.9525
0.104 -0.161599 -0.033682 -0.134023 -0.000292694 -0.00554063 12.9488
0.105 -0.161195 -0.0344155 -0.134673 -0.000290411 -0.0055654 12.9451
0.106 -0.160784 -0.0351488 -0.135323 -0.000288214 -0.00559023 12.9414
0.107 -0.160366 -0.0358802 -0.135977 -0.000286109 -0.00561515 12.9377
0.108 -0.159941 -0.0366151 -0.136629 -0.000284097 -0.00564022 12.934
0.109 -0.159512 -0.0373503 -0.137282 -0.000282178 -0.00566549 12.9304
0.11 -0.159074 -0.0380847 -0.137938 -0.000280349 -0.00569101 12.9267
0.111 -0.158632 -0.0388196 -0.138596 -0.000278607 -0.00571683 12.923
0.112 -0.158185 -0.0395519 -0.139251 -0.000276945 -0.00574299 12.9194
0.113 -0.157734 -0.0402862 -0.139908 -0.000275357 -0.00576955 12.9157
0.114 -0.15728 -0.0410213 -0.140564 -0.000273833 -0.00579655 12.9121
0.115 -0.156824 -0.0417523 -0.141222 -0.000272363 -0.00582402 12.9084
0.116 -0.156369 -0.0424843 -0.141881 -0.000270936 -0.005852 12.9048
0.117 -0.155914 -0.0432151 -0.14254 -0.000269543 -0.00588051 12.9011
0.118 -0.155458 -0.043947 -0.143203 -0.000268175 -0.00590957 12.8975
0.119 -0.155005 -0.0446816 -0.143865 -0.000266823 -0.00593918 12.8939
0.12 -0.154555 -0.0454135 -0.144529 -0.000265475 -0.00596935 12.8903
0.121 -0.15411 -0.0461463 -0.145192 -0.000264121 -0.00600008 12.8867
0.122 -0.153668 -0.0468826 -0.145857 -0.000262751 -0.00603136 12.8831
0.123 -0.153232 -0.0476176 -0.146523 -0.00026136 -0.00606317 12.8795
0.124 -0.152803 -0.0483499 -0.147189 -0.000259944 -0.0060955 12.8759
0.125 -0.152381 -0.0490865 -0.147856 -0.000258501 -0.0061283 12.8723
0.126 -0.151968 -0.0498228 -0.148522 -0.00025703 -0.00616154 12.8687
0.127 -0.151561 -0.0505605 -0.149187 -0.000255533 -0.0061952 12.8651
0.128 -0.151159 -0.0512992 -0.149855 -0.000254013 -0.00622922 12.8615
0.129 -0.150765 -0.0520409 -0.150524 -0.000252478 -0.00626357 12.858
0.13 -0.150377 -0.052784 -0.151193 -0.000250935 -0.00629819 12.8544
0.131 -0.149999 -0.0535265 -0.151865 -0.000249394 -0.00633305 12.8508
0.132 -0.149626 -0.0542717 -0.152535 -0.000247867 -0.0063681 12.8473
0.133 -0.149259 -0.0550192 -0.153209 -0.000246367 -0.0064033 12.8437
0.134 -0.148897 -0.055767 -0.153883 -0.000244907 -0.0064386 12.8402
0.135 -0.14854 -0.0565161 -0.154557 -0.000243503 -0.00647397 12.8367
0.136 -0.148186 -0.0572654 -0.155233 -0.00024217 -0.00650939 12.8331
0.137 -0.147836 -0.0580165 -0.155907 -0.000240924 -0.00654482 12.8296
0.138 -0.147486 -0.0587689 -0.156584 -0.000239779 -0.00658026 12.8261
0.139 -0.147139 -0.0595186 -0.157262 -0.000238749 -0.00661568 12.8226
0.14 -0.146792 -0.0602707 -0.15794 -0.000237846 -0.00665107 12.819
0.141 -0.146444 -0.0610229 -0.158619 -0.000237068 -0.00668645 12.8157
0.142 -0.146097 -0.0617748 -0.1593 -0.000236447 -0.0067218 12.8122
0.143 -0.14575 -0.0625242 -0.159978 -0.000235977 -0.00675714 12.8086
0.144 -0.1454 -0.063272 -0.16066 -0.000235659 -0.00679249 12.8052
0.145 -0.145047 -0.064019 -0.161344 -0.000235494 -0.00682787 12.8017
0.146 -0.14469 -0.0647658 -0.162029 -0.000235479 -0.00686333 12.7982
0.147 -0.144334 -0.0655091 -0.162717 -0.000235606 -0.00689889 12.7947
0.148 -0.143974 -0.0662482 -0.163402 -0.000235868 -0.00693458 12.7912
0.149 -0.143607 -0.0669885 -0.164086 -0.000236253 -0.00697045 12.7877
0.15 -0.143241 -0.0677246 -0.164775 -0.000236747 -0.00700653 12.7843
0.151 -0.14287 -0.0684555 -0.165461 -0.000237333 -0.00704287 12.7808
0.152 -0.1425 -0.0691864 -0.166151 -0.000237992 -0.0070795 12.7773
0.153 -0.142126 -0.0699131 -0.166839 -0.000238701 -0.00711648 12.7739
0.154 -0.141752 -0.0706382 -0.167528 -0.000239441 -0.00715382 12.7704
0.155 -0.141379 -0.071359 -0.16822 -0.000240191 -0.00719157 12.767
0.156 -0.141005 -0.0720753 -0.168912 -0.000240933 -0.00722974 12.7636
0.157 -0.140634 -0.0727927 -0.169604 -0.000241645 -0.00726836 12.7601
0.158 -0.140266 -0.0735077 -0.170297 -0.000242305 -0.00730745 12.7567
0.159 -0.139898 -0.0742217 -0.170989 -0.000242893 -0.00734703 12.7533
0.16 -0.139534 -0.074933 -0.171682 -0.000243393 -0.0073871 12.7499
0.161 -0.139177 -0.0756428 -0.172375 -0.000243791 -0.00742767 12.7464
0.162 -0.138822 -0.076354 -0.173071 -0.000244077 -0.00746873 12.743
0.163 -0.138477 -0.077066 -0.173768 -0.000244226 -0.00751028 12.7398
0.164 -0.138135 -0.0777792 -0.174465 -0.000244266 -0.00755228 12.7364
0.165 -0.137801 -0.0784913 -0.175163 -0.000244182 -0.00759473 12.733
0.166 -0.137475 -0.0792049 -0.175862 -0.000243975 -0.0076376 12.7296
0.167 -0.137159 -0.0799228 -0.176564 -0.000243654 -0.00768086 12.7262
0.168 -0.136846 -0.0806422 -0.177264 -0.000243227 -0.00772448 12.7228
0.169 -0.136543 -0.0813625 -0.177964 -0.00024271 -0.00776843 12.7194
0.17 -0.136246 -0.0820858 -0.178666 -0.000242119 -0.00781268 12.716
0.171 -0.13596 -0.0828102 -0.179368 -0.000241474 -0.00785719 12.7127
0.172 -0.135678 -0.0835371 -0.180072 -0.000240797 -0.00790192 12.7093
0.173 -0.135405 -0.0842653 -0.180777 -0.000240113 -0.00794685 12.7059
0.174 -0.135137 -0.0849962 -0.181483 -0.000239446 -0.00799194 12.7026
0.175 -0.134874 -0.0857302 -0.182187 -0.000238824 -0.00803717 12.6992
0.176 -0.134618 -0.0864675 -0.182893 -0.000238274 -0.00808251 12.6959
0.177 -0.134368 -0.0872042 -0.1836 -0.000237821 -0.00812795 12.6926
0.178 -0.13412 -0.0879432 -0.184308 -0.00023749 -0.00817346 12.6892
0.179 -0.133881 -0.0886802 -0.185016 -0.000237303 -0.00821904 12.6859
0.18 -0.133643 -0.0894168 -0.185725 -0.000237264 -0.00826467 12.6827
0.181 -0.133405 -0.0901554 -0.186433 -0.00023739 -0.00831035 12.6796
0.182 -0.13317 -0.0908916 -0.187146 -0.000237748 -0.00835608 12.6763
0.183 -0.132937 -0.0916269 -0.187857 -0.000238314 -0.00840187 12.673
0.184 -0.132705 -0.0923582 -0.188569 -0.000239076 -0.00844774 12.6698
0.185 -0.132469 -0.0930857 -0.18928 -0.000240801 -0.00849222 12.666
0.186 -0.132227 -0.093808 -0.189994 -0.000243156 -0.00853596 12.662
0.187 -0.131978 -0.094522 -0.190706 -0.000246134 -0.00857898 12.6577
0.188 -0.131718 -0.0952247 -0.191418 -0.000249725 -0.00862128 12.6533
0.189 -0.131444 -0.0959189 -0.192133 -0.00025391 -0.00866289 12.6486
0.19 -0.131157 -0.0965997 -0.192848 -0.000258666 -0.00870384 12.6437
0.191 -0.130856 -0.0972665 -0.193563 -0.000263964 -0.00874414 12.6387
0.192 -0.130535 -0.0979199 -0.194279 -0.000269777 -0.00878383 12.6334
0.193 -0.130197 -0.0985595 -0.194994 -0.000276075 -0.00882291 12.628
0.194 -0.129838 -0.0991833 -0.195707 -0.000282824 -0.0088614 12.6224
0.195 -0.129459 -0.0997923 -0.19642 -0.000289984 -0.00889934 12.6166
0.196 -0.129056 -0.100384 -0.197134 -0.000297516 -0.00893673 12.6107
0.197 -0.128629 -0.10096 -0.197852 -0.000305384 -0.0089736 12.6046
0.198 -0.128176 -0.101517 -0.198567 -0.000313552 -0.00900995 12.5984
0.199 -0.127699 -0.102061 -0.199283 -0.000321988 -0.00904578 12.592
0.2 -0.127199 -0.102588 -0.199997 -0.00033022 -0.00908194 12.5859
0.201 -0.12667 -0.103098 -0.200712 -0.000339101 -0.00911676 12.5793
0.202 -0.126117 -0.103593 -0.201425 -0.000348171 -0.00915107 12.5725
0.203 -0.125534 -0.104071 -0.202137 -0.000357413 -0.00918485 12.5656
0.204 -0.124923 -0.104533 -0.202853 -0.000366813 -0.00921811 12.5587
0.205 -0.12428 -0.104977 -0.203569 -0.000376367 -0.00925082 12.5516
0.206 -0.123607 -0.105407 -0.204281 -0.000386073 -0.00928298 12.5444
0.207 -0.122903 -0.105824 -0.204995 -0.000395935 -0.00931457 12.5371
0.208 -0.122167 -0.106222 -0.205705 -0.000405965 -0.00934558 12.5298
0.209 -0.121397 -0.106605 -0.206417 -0.000416176 -0.00937599 12.5223
0.21 -0.120591 -0.106973 -0.207132 -0.000426587 -0.00940581 12.5148
0.211 -0.11975 -0.107325 -0.207843 -0.000437223 -0.009435 12.5072
0.212 -0.118873 -0.107661 -0.208556 -0.000448108 -0.00946358 12.4996
0.213 -0.117957 -0.107979 -0.209267 -0.000459272 -0.00949153 12.4918
0.214 -0.117003 -0.108281 -0.209978 -0.000470744 -0.00951886 12.484
0.215 -0.116011 -0.108563 -0.210689 -0.000482555 -0.00954557 12.4762
0.216 -0.11498 -0.108827 -0.211399 -0.000494733 -0.00957167 12.4683
0.217 -0.113908 -0.109075 -0.212108 -0.000507308 -0.00959715 12.4603
0.218 -0.112795 -0.109301 -0.212816 -0.000520305 -0.00962204 12.4523
0.219 -0.11164 -0.109509 -0.213525 -0.000533747 -0.00964635 12.4442
0.22 -0.110443 -0.109693 -0.214232 -0.000547653 -0.0096701 12.4361
0.221 -0.109204 -0.109854 -0.214941 -0.000562037 -0.00969331 12.428
0.222 -0.10792 -0.109993 -0.215647 -0.00057691 -0.00971601 12.4198
0.223 -0.10659 -0.110107 -0.216351 -0.000592274 -0.00973821 12.4116
0.224 -0.105219 -0.110199 -0.217058 -0.00060813 -0.00975995 12.4033
0.225 -0.103801 -0.110263 -0.217761 -0.000624468 -0.00978125 12.3951
0.226 -0.102339 -0.110301 -0.218465 -0.000641277 -0.00980213 12.3868
0.227 -0.100833 -0.110311 -0.219169 -0.000658537 -0.00982263 12.3784
0.228 -0.0992837 -0.110295 -0.219872 -0.000676224 -0.00984277 12.3701
0.229 -0.0976898 -0.11025 -0.220576 -0.000694308 -0.00986258 12.3618
0.23 -0.0960498 -0.110176 -0.221279 -0.00071276 -0.00988206 12.3534
0.231 -0.0943636 -0.110073 -0.221977 -0.000731547 -0.00990124 12.345
0.232 -0.0926345 -0.109942 -0.222678 -0.000750633 -0.00992013 12.3366
0.233 -0.090861 -0.109784 -0.223377 -0.000769975 -0.00993875 12.3282
0.234 -0.0890453 -0.109592 -0.224076 -0.000789533 -0.00995712 12.3198
0.235 -0.0871856 -0.109372 -0.224775 -0.000809266 -0.00997524 12.3114
0.236 -0.0852811 -0.109126 -0.225471 -0.000829133 -0.00999313 12.303
0.237 -0.0833311 -0.108849 -0.226166 -0.000849099 -0.0100108 12.2946
0.238 -0.0813404 -0.108544 -0.226862 -0.000869126 -0.0100282 12.2861
0.239 -0.0793032 -0.108213 -0.227554 -0.000889185 -0.0100454 12.2777
0.24 -0.0772243 -0.107854 -0.228248 -0.000909248 -0.0100625 12.2693
0.241 -0.0751022 -0.10747 -0.228943 -0.000929291 -0.0100792 12.261
0.242 -0.0729362 -0.107057 -0.229635 -0.000949295 -0.0100958 12.2526
0.243 -0.0707252 -0.10662 -0.230327 -0.000969242 -0.0101122 12.2442
0.244 -0.0684711 -0.106161 -0.231019 -0.000989124 -0.0101284 12.2358
0.245 -0.0661728 -0.105675 -0.231709 -0.00100894 -0.0101444 12.2275
0.246 -0.0638299 -0.105167 -0.232399 -0.00102867 -0.0101602 12.2192
0.247 -0.0614451 -0.104636 -0.233091 -0.00104834 -0.0101759 12.2108
0.248 -0.0590185 -0.104082 -0.23378 -0.00106795 -0.0101914 12.2026
0.249 -0.0565472 -0.103504 -0.234469 -0.0010875 -0.0102068 12.1943
0.25 -0.0540343 -0.102903 -0.235155 -0.00110701 -0.010222 12.186
0.251 -0.0514765 -0.102282 -0.235842 -0.0011265 -0.0102371 12.1778
0.252 -0.048877 -0.101637 -0.236527 -0.00114597 -0.0102522 12.1696
0.253 -0.0462329 -0.100968 -0.23721 -0.00116544 -0.0102672 12.1614
0.254 -0.0435479 -0.100279 -0.237894 -0.00118494 -0.0102822 12.1532
0.255 -0.040818 -0.0995668 -0.238578 -0.00120446 -0.0102971 12.1451
0.256 -0.0380453 -0.0988343 -0.239258 -0.00122404 -0.0103121 12.137
0.257 -0.0352319 -0.0980802 -0.23994 -0.00124368 -0.0103271 12.1289
0.258 -0.0323761 -0.0973011 -0.240621 -0.0012634 -0.0103422 12.1208
0.259 -0.029481 -0.0965001 -0.241302 -0.0012832 -0.0103573 12.1128
0.26 -0.0265431 -0.0956771 -0.24198 -0.00130309 -0.0103726 12.1048
0.261 -0.0235694 -0.0948264 -0.24266 -0.00132307 -0.010388 12.0968
0.262 -0.0205543 -0.0939525 -0.243337 -0.00134315 -0.0104035 12.0889
0.263 -0.0174996 -0.0930547 -0.244014 -0.00136332 -0.0104192 12.081
0.264 -0.0144041 -0.0921328 -0.244691 -0.00138358 -0.0104351 12.0731
0.265 -0.0112735 -0.0911828 -0.245368 -0.00140392 -0.0104511 12.0653
0.266 -0.00810593 -0.0902086 -0.246045 -0.00142433 -0.0104673 12.0575
0.267 -0.00489888 -0.0892118 -0.24672 -0.00144481 -0.0104837 12.0497
0.268 -0.0016546 -0.0881889 -0.247392 -0.00146533 -0.0105003 12.042
0.269 0.00162379 -0.0871393 -0.248066 -0.00148588 -0.010517 12.0343
0.27 0.00493889 -0.0860653 -0.248739 -0.00150644 -0.010534 12.0267
0.271 0.00828888 -0.0849666 -0.24941 -0.00152669 -0.0105515 12.0193
0.272 0.0116758 -0.0838412 -0.250083 -0.00154723 -0.0105688 12.0117
0.273 0.0150988 -0.0826888 -0.250753 -0.00156772 -0.0105863 12.0042
0.274 0.0185557 -0.0815131 -0.251421 -0.00158785 -0.0106043 11.9969
0.275 0.0220489 -0.0803121 -0.25209 -0.0016082 -0.0106222 11.9894
0.276 0.0255751 -0.0790839 -0.25276 -0.00162846 -0.0106402 11.982
0.277 0.0291375 -0.0778295 -0.253429 -0.0016486 -0.0106583 11.9746
0.278 0.0327356 -0.0765521 -0.254097 -0.0016686 -0.0106767 11.9672
0.279 0.0363676 -0.0752492 -0.254763 -0.00168846 -0.0106953 11.9599
0.28 0.0400336 -0.0739231 -0.255429 -0.00170814 -0.0107141 11.9527
0.281 0.0437339 -0.0725696 -0.256096 -0.00172764 -0.0107331 11.9454
0.282 0.0474691 -0.0711954 -0.25676 -0.00174666 -0.0107528 11.9385
0.283 0.051238 -0.0697975 -0.257423 -0.00176547 -0.0107726 11.9316
0.284 0.0550388 -0.0683768 -0.258088 -0.00178434 -0.0107925 11.9245
0.285 0.0588739 -0.0669342 -0.258751 -0.00180297 -0.0108127 11.9174
0.286 0.0627418 -0.0654677 -0.259415 -0.00182136 -0.0108332 11.9104
0.287 0.0666425 -0.063981 -0.260077 -0.00183949 -0.0108541 11.9034
0.288 0.0705727 -0.0624699 -0.260741 -0.00185736 -0.0108754 11.8965
0.289 0.0745347 -0.0609408 -0.261401 -0.00187496 -0.0108971 11.8896
0.29 0.0785275 -0.0593886 -0.26206 -0.00189227 -0.0109193 11.8828
0.291 0.0825479 -0.0578162 -0.26272 -0.00190929 -0.010942 11.876
0.292 0.086597 -0.0562241 -0.263379 -0.00192602 -0.0109653 11.8693
0.293 0.0906751 -0.0546108 -0.264038 -0.00194244 -0.0109891 11.8626
0.294 0.0947805 -0.0529776 -0.264696 -0.00195855 -0.0110134 11.8559
0.295 0.0989099 -0.0513262 -0.265355 -0.00197436 -0.0110383 11.8493
0.296 0.103066 -0.0496549 -0.266014 -0.00198984 -0.0110639 11.8428
0.297 0.107248 -0.0479659 -0.266671 -0.00200501 -0.01109 11.8363
0.298 0.111452 -0.0462563 -0.267331 -0.00201987 -0.0111167 11.8298
0.299 0.115682 -0.0445292 -0.267987 -0.0020344 -0.011144 11.8234
0.3 0.119933 -0.0427883 -0.26864 -0.00204863 -0.011172 11.8171
0.301 0.124206 -0.0410267 -0.269297 -0.00206255 -0.0112004 11.8108
0.302 0.128502 -0.0392482 -0.269951 -0.00207616 -0.0112295 11.8045
0.303 0.132817 -0.0374524 -0.270606 -0.00208948 -0.0112591 11.7983
0.304 0.137152 -0.0356401 -0.271263 -0.00210252 -0.0112892 11.7922
0.305 0.141511 -0.0338089 -0.271917 -0.00211528 -0.0113198 11.7861
0.306 0.145889 -0.0319609 -0.272568 -0.00212778 -0.0113509 11.78
0.307 0.150287 -0.0300948 -0.273221 -0.00214002 -0.0113824 11.774
0.308 0.154706 -0.0282129 -0.273874 -0.00215203 -0.0114144 11.768
0.309 0.159145 -0.0263135 -0.274527 -0.00216382 -0.0114468 11.7621
0.31 0.163607 -0.024395 -0.275182 -0.00217539 -0.0114795 11.7562
0.311 0.168088 -0.0224588 -0.275833 -0.00218676 -0.0115127 11.7504
0.312 0.17259 -0.0205063 -0.276486 -0.00219794 -0.0115461 11.7447
0.313 0.177112 -0.0185331 -0.277136 -0.00220894 -0.01158 11.7389
0.314 0.181657 -0.0165418 -0.277788 -0.00221976 -0.0116142 11.7333
0.315 0.186224 -0.0145301 -0.27844 -0.00223041 -0.0116487 11.7276
0.316 0.190812 -0.0124983 -0.279089 -0.00224088 -0.0116837 11.7221
0.317 0.195422 -0.0104502 -0.27974 -0.00225117 -0.011719 11.7165
0.318 0.200054 -0.00837911 -0.28039 -0.00226128 -0.0117547 11.7111
0.319 0.204708 -0.00628839 -0.281042 -0.0022712 -0.0117908 11.7056
0.32 0.209385 -0.00417701 -0.281694 -0.0022809 -0.0118274 11.7003
0.321 0.214082 -0.00204756 -0.282343 -0.00229037 -0.0118645 11.6949
0.322 0.218798 0.000103341 -0.282993 -0.00229958 -0.0119021 11.6897
0.323 0.223536 0.00227446 -0.283641 -0.00230851 -0.0119402 11.6844
0.324 0.228294 0.00446502 -0.28429 -0.00231712 -0.011979 11.6792
0.325 0.233071 0.00667311 -0.284939 -0.00232538 -0.0120184 11.6741
0.326 0.237869 0.00890394 -0.285586 -0.00233325 -0.0120585 11.669
0.327 0.242682 0.0111535 -0.286235 -0.00234069 -0.0120993 11.664
0.328 0.247512 0.0134224 -0.286883 -0.00234767 -0.0121408 11.659
0.329 0.25236 0.0157067 -0.287533 -0.00235414 -0.0121832 11.6541
0.33 0.257221 0.0180078 -0.288183 -0.00236006 -0.0122263 11.6492
0.331 0.262094 0.0203251 -0.28883 -0.0023654 -0.0122703 11.6444
0.332 0.266983 0.0226593 -0.289478 -0.00237012 -0.0123152 11.6396
0.333 0.271882 0.0250052 -0.290129 -0.00237419 -0.0123609 11.6349
0.334 0.276791 0.0273638 -0.290779 -0.00237758 -0.0124075 11.6302
0.335 0.281709 0.0297372 -0.291426 -0.00238028 -0.0124549 11.6256
0.336 0.286635 0.0321227 -0.292075 -0.00238226 -0.0125032 11.621
0.337 0.29157 0.0345172 -0.292723 -0.00238352 -0.0125524 11.6165
0.338 0.296511 0.0369198 -0.293372 -0.0023839 -0.0126026 11.6119
0.339 0.301458 0.0393288 -0.294021 -0.00238304 -0.0126542 11.6071
0.34 0.306401 0.0417452 -0.294669 -0.00238095 -0.0127073 11.602
0.341 0.311339 0.0441615 -0.295314 -0.00237765 -0.0127618 11.5967
0.342 0.316272 0.04658 -0.295961 -0.00237318 -0.0128177 11.5912
0.343 0.3212 0.0489999 -0.296607 -0.00236756 -0.012875 11.5855
0.344 0.326117 0.0514138 -0.297253 -0.00236084 -0.0129337 11.5795
0.345 0.331021 0.0538268 -0.2979 -0.00235305 -0.0129937 11.5734
0.346 0.33591 0.0562336 -0.298546 -0.00234426 -0.0130551 11.5671
0.347 0.340783 0.0586357 -0.29919 -0.00233451 -0.0131177 11.5606
0.348 0.345638 0.061032 -0.299834 -0.00232387 -0.0131816 11.5539
0.349 0.350471 0.0634222 -0.300476 -0.0023124 -0.0132468 11.547
0.35 0.355284 0.065806 -0.30112 -0.00230014 -0.0133132 11.54
0.351 0.360075 0.0681831 -0.30176 -0.00228715 -0.0133808 11.5329
0.353 0.369585 0.0729156 -0.303042 -0.00225918 -0.0135199 11.5182
0.354 0.374302 0.0752734 -0.30368 -0.00224429 -0.0135913 11.5106
0.355 0.378996 0.0776293 -0.304318 -0.00222931 -0.0136632 11.5033
0.356 0.383665 0.0799794 -0.304956 -0.00221424 -0.0137358 11.4963
0.357 0.388304 0.0823245 -0.305593 -0.00219773 -0.0138107 11.4882
0.358 0.392912 0.0846626 -0.306229 -0.00218069 -0.0138872 11.4801
0.359 0.397488 0.0869958 -0.306866 -0.00216314 -0.0139649 11.4719
0.36 0.402027 0.0893278 -0.3075 -0.00214507 -0.0140441 11.4636
0.361 0.406534 0.0916528 -0.308135 -0.00212644 -0.0141246 11.4552
0.362 0.411002 0.0939752 -0.308766 -0.00210723 -0.0142065 11.4468
0.363 0.41543 0.0962921 -0.309398 -0.0020874 -0.0142898 11.4382
0.364 0.419819 0.0986026 -0.310028 -0.00206689 -0.0143745 11.4296
0.365 0.424168 0.10091 -0.310656 -0.00204568 -0.0144606 11.4209
0.366 0.42847 0.103209 -0.311283 -0.00202368 -0.0145482 11.4121
0.367 0.432727 0.105503 -0.311908 -0.00200085 -0.0146372 11.4033
0.368 0.436943 0.107787 -0.312532 -0.00197713 -0.0147276 11.3944
0.369 0.441109 0.110062 -0.313156 -0.00195246 -0.0148194 11.3854
0.37 0.445226 0.112327 -0.313777 -0.00192677 -0.0149127 11.3764
0.371 0.449293 0.114581 -0.314401 -0.0019 -0.0150073 11.3673
0.372 0.453311 0.116818 -0.31502 -0.00187211 -0.0151032 11.3582
0.373 0.457275 0.119043 -0.315641 -0.00184306 -0.0152005 11.349
0.374 0.461188 0.121248 -0.316259 -0.00181279 -0.015299 11.3398
0.375 0.465046 0.123434 -0.316876 -0.00178128 -0.0153988 11.3305
0.376 0.468851 0.1256 -0.317489 -0.00174852 -0.0154998 11.3212
0.377 0.472598 0.127744 -0.318102 -0.00171448 -0.0156019 11.3119
0.378 0.476291 0.129865 -0.318715 -0.00167918 -0.0157052 11.3025
0.379 0.479929 0.131958 -0.319323 -0.00164263 -0.0158095 11.2931
0.38 0.48351 0.134023 -0.319931 -0.00160484 -0.0159149 11.2836
0.381 0.487033 0.13606 -0.320538 -0.00156584 -0.0160213 11.2742
0.382 0.490504 0.138066 -0.321146 -0.00152618 -0.016128 11.2651
0.383 0.493922 0.140043 -0.321754 -0.0014854 -0.0162357 11.256
0.384 0.497281 0.141985 -0.322359 -0.00144306 -0.0163448 11.2464
0.385 0.500581 0.143897 -0.322962 -0.00139974 -0.0164549 11.2368
0.386 0.503825 0.145774 -0.323562 -0.00135551 -0.0165658 11.2272
0.387 0.507017 0.147618 -0.32416 -0.00131094 -0.016677 11.218
0.388 0.510155 0.149429 -0.324756 -0.0012656 -0.016789 11.2088
0.389 0.513233 0.151208 -0.325355 -0.00121909 -0.0169025 11.1991
0.39 0.516254 0.152953 -0.32595 -0.00117198 -0.0170168 11.1894
0.391 0.519219 0.154665 -0.326544 -0.00112436 -0.0171319 11.1798
0.392 0.522124 0.156343 -0.327136 -0.00107629 -0.0172479 11.1701
0.393 0.524973 0.157993 -0.327727 -0.00102785 -0.0173648 11.1604
0.394 0.527765 0.159612 -0.328317 -0.000979577 -0.017482 11.1511
0.395 0.530499 0.161207 -0.328905 -0.000931048 -0.0176 11.1418
0.396 0.533175 0.162771 -0.329492 -0.000881832 -0.0177195 11.132
0.397 0.53579 0.164308 -0.330078 -0.000832407 -0.01784 11.1223
0.398 0.538346 0.165822 -0.330664 -0.000783324 -0.0179609 11.113
0.399 0.540843 0.167313 -0.331249 -0.000734644 -0.018082 11.1041
0.4 0.543278 0.168781 -0.331829 -0.000684916 -0.0182051 11.0943
0.401 0.545647 0.17023 -0.332408 -0.000635093 -0.0183291 11.0845
0.402 0.547951 0.17166 -0.332986 -0.000585168 -0.0184539 11.0748
0.403 0.550193 0.173068 -0.333562 -0.000535125 -0.0185796 11.0651
0.404 0.55237 0.174459 -0.334135 -0.000484942 -0.0187062 11.0553
0.405 0.554479 0.17583 -0.334709 -0.000434587 -0.0188335 11.0456
0.406 0.556522 0.177183 -0.335281 -0.000384023 -0.0189615 11.0359
0.407 0.558496 0.178519 -0.335851 -0.00033321 -0.0190903 11.0262
0.408 0.560408 0.179838 -0.336419 -0.0002821 -0.0192197 11.0165
0.409 0.562249 0.181139 -0.336985 -0.000230647 -0.0193496 11.0068
0.41 0.564025 0.182424 -0.337549 -0.000178801 -0.0194801 10.9972
0.411 0.565734 0.183689 -0.338112 -0.000126512 -0.0196109 10.9875
0.412 0.567376 0.184933 -0.338675 -7.37314e-05 -0.0197422 10.9779
0.413 0.568952 0.18616 -0.339234 -2.04116e-05 -0.0198737 10.9683
0.414 0.570468 0.187367 -0.339794 3.34904e-05 -0.0200054 10.9587
0.415 0.571921 0.188552 -0.340352 8.75744e-05 -0.0201369 10.9494
0.416 0.573314 0.189718 -0.340906 0.000142319 -0.0202683 10.9402
0.417 0.574647 0.19086 -0.341462 0.000198184 -0.0204002 10.9306
0.418 0.575918 0.191976 -0.342015 0.000254745 -0.020532 10.921
0.419 0.577129 0.193066 -0.342565 0.000312012 -0.0206636 10.9115
0.42 0.578281 0.194131 -0.343116 0.000369997 -0.0207951 10.902
0.421 0.579377 0.195164 -0.343665 0.000428699 -0.0209263 10.8924
0.422 0.580419 0.19617 -0.34421 0.00048811 -0.0210573 10.8829
0.423 0.58141 0.197142 -0.344755 0.00054821 -0.021188 10.8734
0.424 0.582349 0.198085 -0.345296 0.000608971 -0.0213183 10.864
0.425 0.58324 0.198995 -0.345837 0.000670363 -0.0214484 10.8545
0.426 0.584078 0.199873 -0.346375 0.000732349 -0.0215781 10.8451
0.427 0.584871 0.200718 -0.346911 0.000794885 -0.0217076 10.8357
0.428 0.585616 0.201529 -0.347447 0.000857925 -0.0218367 10.8263
0.429 0.586313 0.202305 -0.347981 0.000921418 -0.0219655 10.8169
0.43 0.586965 0.203049 -0.348513 0.000985312 -0.0220941 10.8076
0.431 0.58757 0.203759 -0.349045 0.00104955 -0.0222225 10.7983
0.432 0.588131 0.204431 -0.349574 0.00111407 -0.0223506 10.7889
0.433 0.588645 0.205073 -0.350101 0.00117883 -0.0224787 10.7797
0.434 0.589116 0.20568 -0.350628 0.00124376 -0.0226067 10.7704
0.435 0.589542 0.206257 -0.351152 0.00130883 -0.0227346 10.7611
0.436 0.589921 0.2068 -0.351675 0.00137396 -0.0228625 10.7519
0.437 0.590254 0.207312 -0.352195 0.00143912 -0.0229904 10.7427
0.438 0.59054 0.207794 -0.352713 0.00150427 -0.0231184 10.7335
0.439 0.590777 0.208246 -0.353231 0.00156936 -0.0232466 10.7244
0.44 0.590967 0.208672 -0.353749 0.00163436 -0.0233749 10.7152
0.441 0.591104 0.209069 -0.354264 0.00169924 -0.0235033 10.7061
0.442 0.59119 0.209441 -0.354777 0.00176399 -0.0236319 10.697
0.443 0.591224 0.209788 -0.355288 0.00182857 -0.0237607 10.6879
0.444 0.59121 0.21011 -0.355797 0.00189264 -0.0238894 10.6792
0.445 0.591138 0.210409 -0.356306 0.00195687 -0.0240184 10.6701
0.446 0.591012 0.210685 -0.356812 0.00202092 -0.0241476 10.6611
0.447 0.590831 0.210939 -0.357316 0.00208479 -0.024277 10.6521
0.448 0.590593 0.211173 -0.357819 0.00214848 -0.0244063 10.6431
0.449 0.590296 0.211387 -0.358322 0.00221201 -0.0245357 10.6341
0.45 0.589943 0.211581 -0.358822 0.00227539 -0.024665 10.6252
0.451 0.589533 0.211754 -0.35932 0.00233863 -0.0247942 10.6163
0.452 0.589065 0.211909 -0.359816 0.00240175 -0.0249232 10.6074
0.453 0.588542 0.212043 -0.360312 0.00246476 -0.0250519 10.5985
0.454 0.587961 0.212162 -0.360806 0.0025277 -0.0251803 10.5896
0.455 0.587324 0.21226 -0.361298 0.00259057 -0.0253082 10.5808
0.456 0.58663 0.212337 -0.361786 0.0026534 -0.0254355 10.572
0.457 0.585885 0.2124 -0.362273 0.00271621 -0.0255622 10.5632
0.458 0.585085 0.212443 -0.36276 0.00277901 -0.0256881 10.5544
0.459 0.584236 0.212467 -0.363247 0.00284181 -0.0258132 10.5457
0.46 0.583337 0.21247 -0.36373 0.00290462 -0.0259375 10.5369
0.461 0.58239 0.212453 -0.364211 0.00296747 -0.0260607 10.5282
0.462 0.581397 0.212414 -0.36469 0.00303035 -0.0261829 10.5195
0.463 0.580358 0.212355 -0.365168 0.00309328 -0.026304 10.5109
0.464 0.579282 0.212276 -0.365644 0.00315626 -0.026424 10.5022
0.465 0.578166 0.212176 -0.366119 0.00321928 -0.0265427 10.4936
0.466 0.577009 0.212054 -0.366593 0.00328233 -0.0266602 10.485
0.467 0.575818 0.211912 -0.367064 0.00334542 -0.0267764 10.4764
0.468 0.574594 0.21175 -0.367533 0.00340827 -0.0268913 10.4682
0.469 0.573341 0.211566 -0.368002 0.00347113 -0.0270049 10.4599
0.47 0.572061 0.211359 -0.368468 0.00353375 -0.0271173 10.452
0.471 0.570756 0.211131 -0.368934 0.00359636 -0.0272284 10.4441
0.472 0.569426 0.21088 -0.369398 0.00365937 -0.0273379 10.4353
0.473 0.568068 0.210606 -0.369858 0.00372208 -0.0274462 10.4269
0.474 0.56669 0.210311 -0.370319 0.00378448 -0.0275533 10.4188
0.475 0.565287 0.209993 -0.370776 0.00384732 -0.0276597 10.4103
0.476 0.563862 0.209651 -0.371233 0.00390981 -0.027765 10.4022
0.477 0.562414 0.209289 -0.371688 0.00397195 -0.0278694 10.3943
0.478 0.560948 0.208905 -0.372145 0.00403372 -0.0279729 10.3868
0.479 0.559463 0.208501 -0.372598 0.00409511 -0.0280756 10.3796
0.48 0.557958 0.20808 -0.373049 0.0041561 -0.0281775 10.3726
0.481 0.556433 0.207641 -0.373498 0.00421669 -0.0282787 10.366
0.482 0.554893 0.207182 -0.373947 0.00427686 -0.0283792 10.3596
0.483 0.553331 0.20671 -0.374395 0.00433661 -0.0284792 10.3534
0.484 0.551751 0.206221 -0.374839 0.00439594 -0.0285785 10.3475
0.485 0.550152 0.205716 -0.375281 0.00445482 -0.0286773 10.3419
0.486 0.548535 0.205196 -0.375722 0.00451327 -0.0287756 10.3364
0.487 0.546897 0.204663 -0.376164 0.00457128 -0.0288735 10.3312
0.488 0.545237 0.204116 -0.376605 0.00462884 -0.0289709 10.3262
0.489 0.543557 0.203557 -0.377044 0.00468597 -0.0290679 10.3214
0.49 0.541854 0.202985 -0.377483 0.00474266 -0.0291644 10.3168
0.491 0.540126 0.202405 -0.377924 0.0047989 -0.0292606 10.3123
0.492 0.538373 0.201814 -0.378362 0.00485472 -0.0293562 10.3081
0.493 0.53658 0.2012 -0.378796 0.00491352 -0.0294494 10.2982
0.494 0.534746 0.200562 -0.379229 0.00497208 -0.0295425 10.2886
0.495 0.532871 0.199904 -0.379661 0.00503015 -0.0296352 10.2794
0.496 0.530956 0.199226 -0.380091 0.00508774 -0.0297276 10.2706
0.497 0.529002 0.198531 -0.380518 0.00514486 -0.0298194 10.2621
0.498 0.527005 0.197817 -0.380944 0.00520151 -0.0299107 10.254
0.499 0.524971 0.197087 -0.381368 0.00525768 -0.0300014 10.2462
0.5 0.522902 0.196342 -0.381791 0.00531338 -0.0300913 10.2387
0.501 0.520798 0.195577 -0.382215 0.00536861 -0.0301804 10.2315
0.502 0.518659 0.194799 -0.382635 0.00542335 -0.0302686 10.2246
0.503 0.516487 0.194008 -0.383054 0.00547761 -0.0303559 10.218
0.504 0.514284 0.193201 -0.38347 0.00553138 -0.0304421 10.2116
0.505 0.512051 0.192383 -0.383886 0.00558465 -0.0305272 10.2055
0.506 0.509791 0.191551 -0.384303 0.00563742 -0.0306111 10.1996
0.507 0.507506 0.190707 -0.384716 0.00568969 -0.0306937 10.1939
0.508 0.505198 0.189853 -0.385129 0.00574143 -0.030775 10.1885
0.509 0.50287 0.188989 -0.385542 0.00579264 -0.0308549 10.1833
0.51 0.500518 0.188115 -0.385951 0.00584333 -0.0309334 10.1783
0.511 0.498154 0.187231 -0.386362 0.00589347 -0.0310105 10.1735
0.512 0.495769 0.186329 -0.386768 0.0059449 -0.0310799 10.162
0.513 0.493359 0.185411 -0.387173 0.00599644 -0.0311506 10.1522
0.514 0.490928 0.184475 -0.387575 0.0060474 -0.0312201 10.1428
0.515 0.48848 0.183524 -0.387977 0.00609777 -0.0312883 10.1337
0.516 0.486013 0.182557 -0.388378 0.00614757 -0.0313552 10.125
0.517 0.483532 0.181578 -0.388777 0.00619679 -0.0314208 10.1167
0.518 0.481038 0.180587 -0.389176 0.00624544 -0.0314853 10.1087
0.519 0.478531 0.17958 -0.389569 0.00629354 -0.0315485 10.101
0.52 0.476014 0.178564 -0.389961 0.00634108 -0.0316106 10.0936
0.521 0.473489 0.177537 -0.390353 0.00638807 -0.0316715 10.0865
0.522 0.470956 0.1765 -0.390742 0.00643453 -0.0317314 10.0797
0.523 0.468416 0.175452 -0.391131 0.00648046 -0.0317902 10.0731
0.524 0.465869 0.174396 -0.391517 0.00652587 -0.031848 10.0668
0.525 0.463315 0.173331 -0.391903 0.00657079 -0.0319049 10.0608
0.526 0.460757 0.172258 -0.392287 0.00661522 -0.0319609 10.055
0.527 0.458193 0.171176 -0.392671 0.00665919 -0.032016 10.0494
0.528 0.45562 0.170086 -0.393051 0.00670271 -0.0320704 10.0441
0.529 0.453037 0.168991 -0.393434 0.00674578 -0.0321239 10.0389
0.53 0.450448 0.167885 -0.393816 0.00678845 -0.0321768 10.034
0.531 0.447849 0.166765 -0.394192 0.00683146 -0.0322212 10.0228
0.532 0.445232 0.16563 -0.39457 0.00687475 -0.0322677 10.013
0.533 0.442601 0.164482 -0.394945 0.00691765 -0.0323138 10.0037
0.534 0.439953 0.163318 -0.395318 0.00696019 -0.0323595 9.99477
0.535 0.437287 0.16214 -0.395686 0.00700237 -0.0324049 9.98617
0.536 0.434603 0.160949 -0.396054 0.0070442 -0.0324498 9.97792
0.537 0.4319 0.159741 -0.396424 0.00708567 -0.0324943 9.97
0.538 0.42918 0.158521 -0.396787 0.0071268 -0.0325383 9.96239
0.539 0.426441 0.157287 -0.397151 0.00716757 -0.0325819 9.95509
0.54 0.423682 0.156039 -0.397514 0.007208 -0.032625 9.94807
0.541 0.420904 0.154778 -0.397876 0.00724806 -0.0326676 9.94134
0.542 0.418108 0.153502 -0.398232 0.00728774 -0.0327095 9.93487
0.543 0.415289 0.152215 -0.39859 0.00732704 -0.0327508 9.92866
0.544 0.412449 0.150914 -0.398944 0.00736592 -0.0327915 9.9227
0.545 0.409593 0.149601 -0.399302 0.00740438 -0.0328313 9.91698
0.546 0.406717 0.148277 -0.399655 0.00744239 -0.0328704 9.91148
0.547 0.403821 0.146939 -0.400007 0.00747992 -0.0329086 9.9062
0.548 0.400909 0.145591 -0.400355 0.00751695 -0.0329459 9.90113
0.549 0.397979 0.144231 -0.400706 0.00755347 -0.0329822 9.89626
0.55 0.395034 0.142854 -0.401056 0.0075892 -0.0330087 9.8853
0.551 0.39207 0.141463 -0.401402 0.00762505 -0.0330369 9.87589
0.552 0.389089 0.140056 -0.401747 0.00766032 -0.0330642 9.86686
0.553 0.386094 0.138635 -0.40209 0.00769498 -0.0330906 9.85818
0.554 0.383084 0.137204 -0.402433 0.00772901 -0.033116 9.84986
0.555 0.380061 0.13576 -0.40277 0.00776239 -0.0331404 9.84186
0.556 0.377028 0.134305 -0.403109 0.00779511 -0.0331638 9.83418
0.557 0.37398 0.132841 -0.403444 0.00782715 -0.0331861 9.82681
0.558 0.370924 0.131368 -0.403778 0.0078585 -0.0332073 9.81973
0.559 0.367863 0.12989 -0.404107 0.00788914 -0.0332274 9.81293
0.56 0.364793 0.128403 -0.404437 0.00791908 -0.0332464 9.8064
0.561 0.36172 0.126911 -0.404768 0.00794831 -0.0332643 9.80013
0.562 0.35864 0.125416 -0.405097 0.00797684 -0.0332811 9.79411
0.563 0.355558 0.123915 -0.405423 0.00800467 -0.0332969 9.78832
0.564 0.352474 0.122412 -0.405749 0.0080318 -0.0333115 9.78277
0.565 0.349386 0.120907 -0.406072 0.00805825 -0.0333251 9.77744
0.566 0.3463 0.119398 -0.406394 0.00808403 -0.0333377 9.77231
0.567 0.343212 0.117889 -0.406715 0.00810917 -0.0333493 9.76739
0.568 0.340122 0.116379 -0.407038 0.00813368 -0.0333599 9.76267
0.569 0.337034 0.114867 -0.407357 0.00815622 -0.0333595 9.75211
0.57 0.333947 0.11335 -0.407676 0.0081789 -0.0333611 9.74309
0.571 0.330862 0.111834 -0.407992 0.00820107 -0.0333619 9.73444
0.572 0.327776 0.110314 -0.408306 0.00822275 -0.0333621 9.72612
0.573 0.324694 0.108787 -0.408618 0.00824397 -0.0333618 9.71814
0.574 0.321609 0.107259 -0.408928 0.00826476 -0.0333608 9.71048
0.575 0.318523 0.105731 -0.409237 0.00828515 -0.0333592 9.70312
0.576 0.315437 0.1042 -0.409545 0.00830515 -0.0333571 9.69606
0.577 0.31235 0.102664 -0.40985 0.0083248 -0.0333544 9.68927
0.578 0.309258 0.101128 -0.410156 0.00834411 -0.0333511 9.68276
0.579 0.306166 0.0995851 -0.410458 0.0083631 -0.0333473 9.6765
0.58 0.303071 0.0980381 -0.410756 0.00838179 -0.033343 9.6705
0.581 0.299972 0.0964874 -0.411058 0.00840018 -0.033338 9.66473
0.582 0.296868 0.0949315 -0.411355 0.00841828 -0.0333325 9.65919
0.583 0.293759 0.0933719 -0.411653 0.0084361 -0.0333265 9.65387
0.584 0.290646 0.0918061 -0.41195 0.00845364 -0.0333198 9.64876
0.585 0.287527 0.0902343 -0.412244 0.0084709 -0.0333124 9.64385
0.586 0.284404 0.0886565 -0.412536 0.00848786 -0.0333045 9.63914
0.587 0.281276 0.0870721 -0.412829 0.00850452 -0.0332959 9.63461
0.588 0.278149 0.0854781 -0.413122 0.00851867 -0.0332756 9.6243
0.589 0.275018 0.0838768 -0.413412 0.00853334 -0.0332578 9.61574
0.59 0.271883 0.0822679 -0.4137 0.00854771 -0.0332396 9.60752
0.591 0.268746 0.0806495 -0.413986 0.00856175 -0.0332208 9.59963
0.592 0.265608 0.0790244 -0.414269 0.00857544 -0.0332015 9.59206
0.593 0.262466 0.0773905 -0.414551 0.00858875 -0.0331816 9.58478
0.594 0.25932 0.0757493 -0.414834 0.00860166 -0.033161 9.5778
0.595 0.256173 0.0740985 -0.415112 0.00861414 -0.0331398 9.57109
0.596 0.253026 0.0724429 -0.415389 0.00862616 -0.0331179 9.56465
0.597 0.249874 0.0707786 -0.415666 0.00863769 -0.0330953 9.55846
0.598 0.246719 0.0691093 -0.415943 0.00864871 -0.0330719 9.55252
0.599 0.243567 0.067434 -0.416215 0.00865919 -0.0330478 9.54682
0.6 0.240413 0.0657537 -0.416487 0.0086691 -0.0330229 9.54134
0.601 0.237258 0.0640706 -0.416759 0.00867843 -0.0329973 9.53608
0.602 0.234105 0.0623814 -0.41703 0.00868715 -0.0329708 9.53103
0.603 0.230951 0.0606877 -0.4173 0.00869526 -0.0329436 9.52617
0.604 0.227797 0.0589932 -0.417568 0.00870273 -0.0329156 9.52151
0.605 0.224646 0.0572966 -0.417835 0.00870957 -0.0328867 9.51703
0.606 0.221494 0.0555981 -0.418103 0.00871576 -0.0328571 9.51273
0.607 0.21835 0.0538993 -0.418365 0.00871843 -0.0328157 9.50301
0.608 0.215215 0.0522027 -0.418627 0.00872125 -0.0327764 9.49492
0.609 0.212088 0.0505097 -0.418887 0.0087235 -0.0327366 9.48716
0.61 0.208964 0.0488176 -0.419147 0.00872518 -0.0326963 9.4797
0.611 0.205846 0.0471264 -0.419406 0.00872632 -0.0326555 9.47255
0.612 0.202737 0.0454386 -0.41966 0.00872692 -0.0326141 9.46567
0.613 0.199633 0.0437528 -0.419916 0.008727 -0.0325722 9.45907
0.614 0.196535 0.0420693 -0.420168 0.00872658 -0.0325298 9.45273
0.615 0.193443 0.0403906 -0.420418 0.00872568 -0.0324869 9.44664
0.616 0.190355 0.0387131 -0.420669 0.00872431 -0.0324434 9.4408
0.617 0.187273 0.0370395 -0.420919 0.0087225 -0.0323995 9.43518
0.618 0.184195 0.0353723 -0.421166 0.00872028 -0.032355 9.42979
0.619 0.181118 0.0337086 -0.421413 0.00871765 -0.03231 9.42462
0.62 0.178047 0.0320489 -0.421659 0.00871465 -0.0322645 9.41964
0.621 0.174979 0.0303911 -0.421904 0.00871128 -0.0322184 9.41487
0.622 0.171915 0.0287343 -0.422146 0.00870758 -0.0321719 9.41028
0.623 0.168851 0.0270814 -0.422388 0.00870355 -0.0321248 9.40587
0.624 0.165791 0.025429 -0.422632 0.00869921 -0.0320771 9.40164
0.625 0.162733 0.02378 -0.422875 0.00869457 -0.0320289 9.39758
0.626 0.159687 0.0221338 -0.423112 0.00868621 -0.0319691 9.38835
0.627 0.156648 0.0204906 -0.423349 0.00867835 -0.0319117 9.38075
0.628 0.15362 0.0188492 -0.423587 0.00867029 -0.0318539 9.37345
0.629 0.150599 0.017209 -0.423822 0.00866203 -0.0317957 9.36644
0.63 0.147587 0.015572 -0.424052 0.00865356 -0.0317371 9.35971
0.631 0.144581 0.0139353 -0.424283 0.00864489 -0.0316781 9.35324
0.632 0.141582 0.0122989 -0.424513 0.008636 -0.0316187 9.34704
0.633 0.138591 0.0106621 -0.424743 0.00862688 -0.0315588 9.34108
0.634 0.135606 0.00902501 -0.424969 0.00861752 -0.0314985 9.33535
0.635 0.132626 0.00738917 -0.425193 0.00860791 -0.0314377 9.32986
0.636 0.129653 0.00575059 -0.425417 0.00859803 -0.0313764 9.32458
0.637 0.126686 0.00411174 -0.42564 0.00858786 -0.0313145 9.31951
0.638 0.123724 0.00247325 -0.425859 0.00857738 -0.0312522 9.31464
0.639 0.120768 0.000835689 -0.42608 0.00856659 -0.0311894 9.30997
0.64 0.117818 -0.000803692 -0.426299 0.00855544 -0.031126 9.30548
0.641 0.114875 -0.00244468 -0.426516 0.00854394 -0.031062 9.30116
0.642 0.111937 -0.00408567 -0.426733 0.00853206 -0.0309976 9.29702
0.643 0.109005 -0.00572816 -0.426949 0.00851978 -0.0309326 9.29304
0.644 0.106079 -0.00736912 -0.427165 0.0085071 -0.030867 9.28922
0.645 0.103159 -0.00901258 -0.42738 0.00849399 -0.0308009 9.28555
0.646 0.100253 -0.0106481 -0.427593 0.00847651 -0.0307231 9.27678
0.647 0.0973624 -0.0122807 -0.427805 0.00845935 -0.0306475 9.26963
0.648 0.0944845 -0.0139101 -0.428014 0.00844182 -0.0305717 9.26276
0.649 0.0916194 -0.0155371 -0.428223 0.00842393 -0.0304956 9.25616
0.65 0.0887667 -0.0171596 -0.428431 0.00840566 -0.0304191 9.24983
0.651 0.0859299 -0.0187747 -0.428635 0.00838702 -0.0303424 9.24375
0.652 0.0831016 -0.0203852 -0.428838 0.00836801 -0.0302654 9.23791
0.653 0.0802842 -0.0219903 -0.429039 0.00834862 -0.0301881 9.2323
0.654 0.0774763 -0.0235899 -0.429242 0.00832887 -0.0301105 9.22691
0.655 0.0746776 -0.0251849 -0.429443 0.00830876 -0.0300326 9.22174
0.656 0.07189 -0.026776 -0.429644 0.00828829 -0.0299544 9.21677
0.657 0.069109 -0.0283614 -0.429843 0.00826749 -0.0298759 9.212
0.658 0.0663397 -0.0299408 -0.43004 0.00824634 -0.0297972 9.20742
0.659 0.0635748 -0.0315179 -0.430236 0.00822488 -0.0297181 9.20302
0.66 0.0608172 -0.0330877 -0.430429 0.0082031 -0.0296388 9.19879
0.661 0.0580656 -0.0346522 -0.430624 0.00818102 -0.0295591 9.19473
0.662 0.055319 -0.0362102 -0.430819 0.00815865 -0.0294792 9.19084
0.663 0.0525811 -0.0377638 -0.431012 0.00813601 -0.0293989 9.18709
0.664 0.0498457 -0.0393163 -0.431206 0.00811309 -0.0293184 9.1835
0.665 0.0471153 -0.0408641 -0.431395 0.00808951 -0.0292364 9.17956
0.666 0.0444011 -0.0424041 -0.431583 0.00806266 -0.0291473 9.17276
0.667 0.0416988 -0.0439355 -0.431769 0.00803565 -0.0290581 9.16623
0.668 0.0390117 -0.045456 -0.431957 0.00800849 -0.0289687 9.15996
0.669 0.0363384 -0.046974 -0.432138 0.00798119 -0.0288791 9.15394
0.67 0.0336735 -0.0484849 -0.432322 0.00795374 -0.0287893 9.14816
0.671 0.031018 -0.0499889 -0.432502 0.00792614 -0.0286993 9.14261
0.672 0.0283737 -0.0514852 -0.43268 0.00789839 -0.028609 9.13728
0.673 0.0257394 -0.052978 -0.43286 0.00787048 -0.0285186 9.13216
0.674 0.0231162 -0.0544652 -0.433039 0.00784241 -0.0284278 9.12725
0.675 0.0205032 -0.0559479 -0.433216 0.00781417 -0.0283368 9.12253
0.676 0.0178994 -0.057428 -0.433392 0.00778574 -0.0282454 9.11799
0.677 0.0153064 -0.0589021 -0.433567 0.00775713 -0.0281538 9.11364
0.678 0.0127175 -0.060373 -0.433741 0.00772831 -0.0280619 9.10946
0.679 0.0101427 -0.0618407 -0.433914 0.00769927 -0.0279696 9.10544
0.68 0.00757526 -0.0633034 -0.434085 0.00767001 -0.027877 9.10159
0.681 0.00501683 -0.0647632 -0.434257 0.00764051 -0.0277841 9.09788
0.682 0.00246468 -0.0662177 -0.434428 0.00761075 -0.0276908 9.09432
0.683 -7.78578e-05 -0.0676719 -0.434599 0.00758073 -0.0275972 9.09091
0.684 -0.00260102 -0.0691162 -0.434766 0.00754628 -0.0274934 9.08311
0.685 -0.0051062 -0.0705539 -0.434932 0.00751166 -0.0273896 9.07563
0.686 -0.00759392 -0.0719804 -0.435098 0.0074774 -0.0272882 9.06976
0.687 -0.0100653 -0.0733985 -0.435262 0.00744291 -0.0271866 9.06412
0.688 -0.0125188 -0.0748077 -0.435424 0.0074082 -0.0270849 9.0587
0.689 -0.0149556 -0.076209 -0.435585 0.00737326 -0.026983 9.0535
0.69 -0.0173802 -0.0775998 -0.435744 0.00733808 -0.0268809 9.0485
0.691 -0.0197885 -0.0789843 -0.435902 0.00730267 -0.0267787 9.04369
0.692 -0.0221827 -0.0803618 -0.436058 0.00726703 -0.0266762 9.03908
0.693 -0.0245633 -0.081729 -0.436214 0.00723115 -0.0265737 9.03464
0.694 -0.0269314 -0.083088 -0.43637 0.00719504 -0.026471 9.03038
0.695 -0.0292897 -0.0844409 -0.436524 0.00715871 -0.0263682 9.02629
0.696 -0.031635 -0.0857856 -0.436677 0.00712217 -0.0262652 9.02236
0.697 -0.0339671 -0.0871238 -0.43683 0.00708542 -0.0261621 9.01858
0.698 -0.0362928 -0.0884498 -0.43698 0.00704847 -0.0260589 9.01495
0.699 -0.0386067 -0.0897711 -0.43713 0.00701135 -0.0259556 9.01146
0.7 -0.0409098 -0.0910862 -0.437278 0.00697405 -0.0258521 9.00811
0.701 -0.0432062 -0.0923909 -0.437427 0.0069366 -0.0257485 9.00489
0.702 -0.0454948 -0.0936899 -0.437575 0.00689901 -0.0256449 9.0018
0.703 -0.0477649 -0.0949774 -0.437724 0.00685729 -0.0255325 8.99488
0.704 -0.0500161 -0.0962526 -0.437869 0.00681587 -0.0254226 8.98935
0.705 -0.0522551 -0.0975168 -0.438013 0.00677442 -0.0253127 8.98404
0.706 -0.0544787 -0.0987695 -0.438153 0.00673296 -0.0252027 8.97893
0.707 -0.0566877 -0.100013 -0.438294 0.0066915 -0.0250927 8.97401
0.708 -0.0588821 -0.101245 -0.438435 0.00665004 -0.0249826 8.96927
0.709 -0.0610647 -0.102471 -0.438573 0.00660859 -0.0248725 8.96472
0.71 -0.0632359 -0.103688 -0.438709 0.00656715 -0.0247624 8.96034
0.711 -0.0653957 -0.104897 -0.438845 0.00652573 -0.0246522 8.95612
0.712 -0.067545 -0.1061 -0.43898 0.00648432 -0.0245419 8.95207
0.713 -0.0696832 -0.107294 -0.439114 0.00644292 -0.0244315 8.94817
0.714 -0.0718105 -0.108484 -0.439248 0.00640152 -0.024321 8.94442
0.715 -0.0739293 -0.109668 -0.43938 0.00636013 -0.0242104 8.94081
0.716 -0.0760394 -0.110847 -0.439512 0.00631872 -0.0240998 8.93734
0.717 -0.0781404 -0.112022 -0.439642 0.00627729 -0.023989 8.934
0.718 -0.0802288 -0.113192 -0.43977 0.00623583 -0.023878 8.93079
0.719 -0.0823096 -0.114358 -0.439898 0.00619432 -0.023767 8.92771
0.72 -0.0843821 -0.115522 -0.440026 0.00615275 -0.0236558 8.92474
0.721 -0.0864481 -0.116685 -0.440153 0.0061111 -0.0235444 8.92189
0.722 -0.0884937 -0.117839 -0.440277 0.00606543 -0.0234246 8.91522
0.723 -0.0905215 -0.118984 -0.440401 0.00602006 -0.0233078 8.91024
0.724 -0.0925316 -0.120118 -0.440522 0.00597464 -0.0231909 8.90544
0.725 -0.0945267 -0.121242 -0.440643 0.00592915 -0.0230738 8.90081
0.726 -0.0965095 -0.122358 -0.440765 0.00588356 -0.0229567 8.89635
0.727 -0.0984752 -0.123461 -0.440882 0.00583787 -0.0228395 8.89206
0.728 -0.100424 -0.124558 -0.441 0.00579204 -0.0227223 8.88792
0.729 -0.10236 -0.125647 -0.441118 0.00574608 -0.022605 8.88393
0.73 -0.104284 -0.126728 -0.441234 0.00569997 -0.0224876 8.88009
0.731 -0.106192 -0.127798 -0.441349 0.00565369 -0.0223702 8.87638
0.732 -0.108088 -0.128861 -0.441464 0.00560724 -0.0222527 8.87282
0.733 -0.109973 -0.129916 -0.441577 0.00556061 -0.0221352 8.86939
0.734 -0.111843 -0.130963 -0.441686 0.00551379 -0.0220177 8.86609
0.735 -0.1137 -0.131999 -0.441798 0.0054668 -0.0219002 8.8629
0.736 -0.115549 -0.133029 -0.44191 0.00541962 -0.0217826 8.85984
0.737 -0.117383 -0.134049 -0.442019 0.00537227 -0.0216651 8.85689
0.738 -0.11921 -0.135058 -0.442128 0.00532474 -0.0215476 8.85406
0.739 -0.121028 -0.136056 -0.442236 0.00527705 -0.0214301 8.85132
0.74 -0.122837 -0.137049 -0.442342 0.00522922 -0.0213127 8.8487
0.741 -0.124626 -0.138024 -0.44245 0.00517742 -0.0211877 8.84246
0.742 -0.126397 -0.138983 -0.442552 0.00512584 -0.0210659 8.83798
0.743 -0.128153 -0.139924 -0.442657 0.00507422 -0.0209442 8.83366
0.744 -0.129892 -0.140851 -0.442758 0.0050226 -0.0208225 8.82948
0.745 -0.131618 -0.141761 -0.442858 0.00497098 -0.0207009 8.82545
0.746 -0.13333 -0.142658 -0.442959 0.00491938 -0.0205794 8.82156
0.747 -0.135029 -0.143545 -0.443058 0.00486784 -0.0204579 8.8178
0.748 -0.136716 -0.144416 -0.443156 0.00481636 -0.0203365 8.81418
0.749 -0.13839 -0.145272 -0.443253 0.00476497 -0.0202152 8.81068
0.75 -0.140052 -0.146116 -0.44335 0.00471368 -0.0200939 8.80731
0.751 -0.141706 -0.146952 -0.443445 0.00466253 -0.0199727 8.80406
0.753 -0.144982 -0.14859 -0.443631 0.00456065 -0.0197305 8.7979
0.754 -0.146602 -0.149398 -0.44372 0.00450995 -0.0196095 8.79499
0.755 -0.148213 -0.150198 -0.443811 0.00445943 -0.0194885 8.79218
0.756 -0.149816 -0.150993 -0.443903 0.0044091 -0.0193676 8.78947
0.757 -0.151409 -0.15178 -0.443991 0.00435895 -0.0192467 8.78686
0.758 -0.152993 -0.152563 -0.444081 0.00430899 -0.0191258 8.78435
0.759 -0.15457 -0.153342 -0.444168 0.00425923 -0.0190049 8.78193
0.76 -0.156137 -0.154117 -0.444257 0.00420965 -0.018884 8.7796
0.761 -0.157684 -0.154884 -0.444342 0.00415657 -0.0187559 8.77366
0.762 -0.159212 -0.155639 -0.444428 0.00410393 -0.018631 8.76965
0.763 -0.160727 -0.156385 -0.444512 0.00405153 -0.0185061 8.76577
0.764 -0.162224 -0.157125 -0.444595 0.00399933 -0.0183812 8.76202
0.765 -0.163704 -0.157854 -0.444675 0.00394734 -0.0182563 8.75838
0.766 -0.165173 -0.158579 -0.444756 0.00389551 -0.0181314 8.75487
0.767 -0.166624 -0.159295 -0.444836 0.00384384 -0.0180065 8.75147
0.768 -0.168061 -0.160008 -0.444914 0.0037923 -0.0178816 8.74818
0.769 -0.169483 -0.160714 -0.444988 0.00374087 -0.0177568 8.74501
0.77 -0.17089 -0.161415 -0.445065 0.00368953 -0.017632 8.74194
0.771 -0.172284 -0.162112 -0.445141 0.00363824 -0.0175073 8.73897
0.772 -0.173665 -0.162803 -0.445215 0.003587 -0.0173827 8.73611
0.773 -0.175031 -0.163491 -0.445288 0.00353577 -0.0172581 8.73335
0.774 -0.176385 -0.16417 -0.445361 0.00348453 -0.0171337 8.73068
0.775 -0.177727 -0.164846 -0.445433 0.00343326 -0.0170093 8.7281
0.776 -0.179057 -0.165519 -0.445504 0.00338195 -0.0168851 8.72562
0.777 -0.180376 -0.166184 -0.445573 0.00333058 -0.016761 8.72322
0.778 -0.181684 -0.166843 -0.445643 0.00327912 -0.0166371 8.72091
0.779 -0.182979 -0.167496 -0.445712 0.00322757 -0.0165134 8.71868
0.78 -0.184257 -0.168137 -0.44578 0.00317266 -0.016384 8.7133
0.781 -0.185516 -0.168765 -0.445847 0.00311778 -0.0162575 8.70975
0.782 -0.186761 -0.169379 -0.445912 0.00306286 -0.0161312 8.70629
0.783 -0.187989 -0.169976 -0.445975 0.00300787 -0.016005 8.70294
0.784 -0.189202 -0.170562 -0.446039 0.00295284 -0.0158791 8.69969
0.785 -0.1904 -0.171133 -0.4461 0.00289775 -0.0157534 8.69655
0.786 -0.191587 -0.171691 -0.446159 0.00284263 -0.0156279 8.69349
0.787 -0.19276 -0.172233 -0.446218 0.00278748 -0.0155027 8.69054
0.788 -0.193925 -0.172765 -0.446277 0.00273231 -0.0153777 8.68768
0.789 -0.195077 -0.173281 -0.446336 0.00267715 -0.015253 8.68491
0.79 -0.196217 -0.173783 -0.44639 0.002622 -0.0151285 8.68222
0.791 -0.197347 -0.174275 -0.446447 0.00256689 -0.0150043 8.67963
0.792 -0.198471 -0.174754 -0.446499 0.00251184 -0.0148803 8.67713
0.793 -0.199585 -0.17522 -0.446553 0.00245688 -0.0147566 8.6747
0.794 -0.200688 -0.175674 -0.446605 0.00240203 -0.0146331 8.67236
0.795 -0.201786 -0.176114 -0.446657 0.00234731 -0.0145099 8.6701
0.796 -0.202875 -0.176546 -0.446709 0.00229276 -0.0143869 8.66791
0.797 -0.203958 -0.176965 -0.446761 0.00223838 -0.0142641 8.6658
0.798 -0.205034 -0.177377 -0.446813 0.00218422 -0.0141415 8.66376
0.799 -0.206095 -0.177773 -0.446862 0.00212729 -0.014014 8.65871
0.8 -0.207142 -0.178154 -0.44691 0.00207068 -0.0138894 8.65558
0.801 -0.208178 -0.17852 -0.446957 0.00201439 -0.0137648 8.65254
0.802 -0.209202 -0.178874 -0.447003 0.00195844 -0.0136403 8.64957
0.803 -0.210214 -0.179215 -0.447048 0.00190283 -0.0135159 8.64669
0.804 -0.211211 -0.179547 -0.44709 0.00184759 -0.0133916 8.64389
0.805 -0.212197 -0.17987 -0.447131 0.00179271 -0.0132674 8.64117
0.806 -0.213172 -0.180183 -0.447171 0.00173821 -0.0131433 8.63853
0.807 -0.214135 -0.180486 -0.447212 0.00168407 -0.0130193 8.63596
0.808 -0.215086 -0.180784 -0.447253 0.00163031 -0.0128954 8.63348
0.809 -0.216024 -0.181076 -0.447293 0.00157691 -0.0127716 8.63107
0.81 -0.21695 -0.181363 -0.447333 0.00152386 -0.0126479 8.62873
0.811 -0.217865 -0.181645 -0.447369 0.00147117 -0.0125242 8.62647
0.812 -0.218767 -0.181925 -0.447406 0.0014188 -0.0124007 8.62428
0.813 -0.219657 -0.182197 -0.447443 0.00136676 -0.0122772 8.62215
0.814 -0.220535 -0.182471 -0.447479 0.00131501 -0.0121539 8.6201
0.815 -0.221402 -0.182742 -0.447514 0.00126354 -0.0120307 8.61812
0.816 -0.222256 -0.183015 -0.447547 0.00121233 -0.0119077 8.6162
0.817 -0.223097 -0.183281 -0.447577 0.00116135 -0.0117848 8.61434
0.818 -0.223919 -0.183544 -0.447608 0.00110802 -0.0116579 8.60978
0.819 -0.224722 -0.1838 -0.44764 0.00105485 -0.011533 8.60705
0.82 -0.22551 -0.184048 -0.44767 0.0010019 -0.0114084 8.60438
0.821 -0.22628 -0.184291 -0.447699 0.000949121 -0.0112839 8.60177
0.822 -0.227034 -0.184528 -0.447728 0.000896498 -0.0111596 8.59922
0.823 -0.227768 -0.184757 -0.447755 0.000844004 -0.0110355 8.59674
0.824 -0.228488 -0.184978 -0.447781 0.000791618 -0.0109117 8.59432
0.825 -0.229196 -0.185195 -0.447805 0.000739317 -0.0107882 8.59197
0.826 -0.229888 -0.185404 -0.447829 0.000687083 -0.010665 8.58968
0.827 -0.230567 -0.185606 -0.447851 0.000634898 -0.0105421 8.58745
0.828 -0.231232 -0.185801 -0.447872 0.00058275 -0.0104196 8.58529
0.829 -0.231883 -0.185988 -0.447892 0.000530626 -0.0102974 8.58319
0.83 -0.232521 -0.186168 -0.447911 0.000478519 -0.0101757 8.58115
0.831 -0.23315 -0.186341 -0.447931 0.000426423 -0.0100543 8.57917
0.832 -0.23377 -0.186504 -0.447949 0.000374335 -0.00993336 8.57726
0.833 -0.234381 -0.186658 -0.447965 0.000322257 -0.00981285 8.5754
0.834 -0.234983 -0.186804 -0.447984 0.000270193 -0.00969278 8.5736
0.835 -0.23558 -0.186943 -0.448 0.00021815 -0.00957316 8.57185
0.836 -0.23617 -0.187073 -0.448015 0.000166139 -0.00945398 8.57017
0.837 -0.236747 -0.187187 -0.44803 0.000111816 -0.00933223 8.56612
0.838 -0.237313 -0.187283 -0.448046 5.74408e-05 -0.00921237 8.56375
0.839 -0.237868 -0.187366 -0.448061 3.1837e-06 -0.00909286 8.56142
0.84 -0.238414 -0.187433 -0.448073 -5.09382e-05 -0.0089737 8.55914
0.841 -0.238949 -0.187484 -0.448084 -0.000104904 -0.00885489 8.5569
0.842 -0.239479 -0.187521 -0.448095 -0.00015869 -0.00873644 8.55471
0.843 -0.239997 -0.187544 -0.448103 -0.00021227 -0.00861834 8.55257
0.844 -0.240508 -0.187554 -0.44811 -0.000265619 -0.00850058 8.55048
0.845 -0.241013 -0.187551 -0.448117 -0.000318713 -0.00838315 8.54845
0.846 -0.241512 -0.187534 -0.448121 -0.000371528 -0.00826604 8.54646
0.847 -0.242003 -0.187506 -0.448124 -0.000424043 -0.00814923 8.54452
0.848 -0.242488 -0.187467 -0.448128 -0.000476235 -0.00803272 8.54264
0.849 -0.242968 -0.187417 -0.448132 -0.000528083 -0.00791648 8.54081
0.85 -0.24344 -0.18736 -0.448135 -0.000579568 -0.00780049 8.53903
0.851 -0.243905 -0.187296 -0.448138 -0.000630673 -0.00768476 8.5373
0.852 -0.244363 -0.187222 -0.448139 -0.000681381 -0.00756925 8.53562
0.853 -0.244813 -0.187143 -0.448141 -0.000731679 -0.00745397 8.53399
0.854 -0.245256 -0.187059 -0.448138 -0.000781556 -0.00733889 8.5324
0.855 -0.245695 -0.186969 -0.448139 -0.000831005 -0.00722402 8.53087
0.856 -0.246119 -0.186871 -0.448138 -0.00088196 -0.00710676 8.52704
0.857 -0.246534 -0.186762 -0.448135 -0.00093268 -0.00699086 8.52502
0.858 -0.246933 -0.186644 -0.448132 -0.000982931 -0.00687506 8.52302
0.859 -0.247321 -0.186522 -0.448129 -0.00103272 -0.00675938 8.52105
0.86 -0.247692 -0.18639 -0.448125 -0.00108205 -0.00664381 8.51912
0.861 -0.248051 -0.186255 -0.448118 -0.00113094 -0.00652838 8.51721
0.862 -0.248397 -0.186114 -0.448112 -0.00117941 -0.00641309 8.51535
0.863 -0.24873 -0.185971 -0.448105 -0.00122746 -0.00629796 8.51351
0.864 -0.249048 -0.185826 -0.448098 -0.00127512 -0.006183 8.51172
0.865 -0.249351 -0.185676 -0.448091 -0.0013224 -0.00606824 8.50997
0.866 -0.249643 -0.185523 -0.448079 -0.00136933 -0.0059537 8.50825
0.867 -0.249924 -0.185371 -0.448068 -0.00141594 -0.00583939 8.50658
0.868 -0.250191 -0.185217 -0.448057 -0.00146224 -0.00572535 8.50495
0.869 -0.250443 -0.185061 -0.448046 -0.00150825 -0.00561159 8.50336
0.87 -0.250682 -0.184904 -0.448033 -0.00155402 -0.00549813 8.50181
0.871 -0.250908 -0.184745 -0.448019 -0.00159955 -0.005385 8.5003
0.872 -0.251124 -0.184587 -0.448003 -0.00164487 -0.00527223 8.49884
0.873 -0.251328 -0.184426 -0.447987 -0.00169 -0.00515984 8.49741
0.874 -0.251521 -0.184264 -0.447974 -0.00173497 -0.00504786 8.49603
0.875 -0.251702 -0.184101 -0.447959 -0.0017798 -0.0049363 8.49468
0.877 -0.252028 -0.18376 -0.447924 -0.00187147 -0.00471282 8.49112
0.878 -0.252171 -0.183576 -0.447904 -0.00191794 -0.00460135 8.48939
0.879 -0.252301 -0.183386 -0.447881 -0.00196428 -0.00449032 8.48768
0.88 -0.252421 -0.183184 -0.44786 -0.00201052 -0.00437976 8.48598
0.881 -0.252528 -0.182975 -0.447838 -0.00205665 -0.00426969 8.48429
0.882 -0.252629 -0.182759 -0.447816 -0.00210268 -0.00416012 8.48264
0.883 -0.252718 -0.182533 -0.447791 -0.00214861 -0.00405107 8.481
0.884 -0.2528 -0.182298 -0.447765 -0.00219443 -0.00394255 8.4794
0.885 -0.252871 -0.182051 -0.447737 -0.00224016 -0.00383456 8.47782
0.886 -0.252936 -0.181795 -0.447711 -0.00228576 -0.0037271 8.47627
0.887 -0.252996 -0.181527 -0.447684 -0.00233124 -0.00362019 8.47475
0.888 -0.253048 -0.181254 -0.447656 -0.00237658 -0.00351381 8.47327
0.889 -0.253094 -0.180969 -0.447626 -0.00242177 -0.00340795 8.47182
0.89 -0.253137 -0.180675 -0.447597 -0.00246678 -0.0033026 8.47041
0.891 -0.253177 -0.180371 -0.447566 -0.00251162 -0.00319776 8.46902
0.892 -0.253214 -0.180057 -0.447536 -0.00255624 -0.0030934 8.46768
0.893 -0.253244 -0.179732 -0.447506 -0.00260063 -0.00298952 8.46636
0.894 -0.253272 -0.179401 -0.447476 -0.00264477 -0.0028861 8.46509
0.895 -0.2533 -0.179064 -0.447444 -0.00268863 -0.00278312 8.46384
0.896 -0.253321 -0.178713 -0.447413 -0.0027336 -0.00267936 8.46054
0.897 -0.253337 -0.178349 -0.44738 -0.00277865 -0.00257653 8.45914
0.898 -0.253348 -0.177971 -0.447343 -0.00282333 -0.00247399 8.45774
0.899 -0.253352 -0.177582 -0.447307 -0.00286761 -0.00237174 8.45634
0.9 -0.25335 -0.177185 -0.447269 -0.00291148 -0.00226977 8.45493
0.901 -0.253344 -0.176777 -0.447231 -0.00295492 -0.00216806 8.45354
0.902 -0.253331 -0.176363 -0.44719 -0.00299793 -0.0020666 8.45215
0.903 -0.25331 -0.17594 -0.447149 -0.00304048 -0.00196539 8.45077
0.904 -0.253283 -0.175511 -0.447107 -0.00308256 -0.00186441 8.44941
0.905 -0.253251 -0.175075 -0.447063 -0.00312418 -0.00176366 8.44806
0.906 -0.253207 -0.174635 -0.44702 -0.00316531 -0.00166312 8.44673
0.907 -0.253159 -0.174188 -0.446976 -0.00320598 -0.00156281 8.44543
0.908 -0.253101 -0.173738 -0.446931 -0.00324617 -0.0014627 8.44415
0.909 -0.253034 -0.173284 -0.446885 -0.00328588 -0.0013628 8.44289
0.91 -0.252958 -0.172827 -0.446839 -0.00332514 -0.00126312 8.44166
0.911 -0.252875 -0.172368 -0.446793 -0.00336393 -0.00116366 8.44045
0.912 -0.252782 -0.17191 -0.446745 -0.00340229 -0.00106442 8.43927
0.913 -0.25268 -0.171454 -0.446697 -0.00344021 -0.00096541 8.43812
0.914 -0.252568 -0.170997 -0.446651 -0.00347772 -0.00086665 8.43699
0.915 -0.252443 -0.170536 -0.446602 -0.00351573 -0.000767069 8.43412
0.916 -0.252304 -0.170076 -0.446551 -0.00355383 -0.000667975 8.43301
0.917 -0.252152 -0.169612 -0.446501 -0.00359153 -0.000569136 8.43187
0.918 -0.251986 -0.169144 -0.446449 -0.00362887 -0.000470578 8.43072
0.919 -0.251807 -0.168676 -0.446397 -0.00366586 -0.000372325 8.42956
0.92 -0.251615 -0.168205 -0.446344 -0.00370254 -0.000274403 8.42839
0.921 -0.251411 -0.167733 -0.446286 -0.00373891 -0.000176839 8.42723
0.922 -0.251193 -0.167258 -0.446228 -0.00377502 -7.96615e-05 8.42606
0.923 -0.250965 -0.166782 -0.446172 -0.00381087 1.71033e-05 8.4249
0.924 -0.250723 -0.166306 -0.446112 -0.00384649 0.000113429 8.42375
0.925 -0.250474 -0.165829 -0.446053 -0.0038819 0.00020929 8.42261
0.926 -0.250213 -0.165348 -0.445994 -0.00391713 0.000304663 8.42149
0.927 -0.249943 -0.164866 -0.445937 -0.00395217 0.000399526 8.42038
0.928 -0.249666 -0.164378 -0.445878 -0.00398706 0.000493862 8.41928
0.929 -0.249378 -0.16389 -0.445816 -0.0040218 0.000587653 8.41821
0.93 -0.249081 -0.163397 -0.445755 -0.00405641 0.000680885 8.41715
0.931 -0.248778 -0.162902 -0.445695 -0.00409088 0.000773543 8.41611
0.932 -0.248472 -0.162403 -0.445633 -0.00412523 0.000865619 8.4151
0.933 -0.248158 -0.161897 -0.445573 -0.00415946 0.000957102 8.4141
0.934 -0.247836 -0.161386 -0.445507 -0.00419426 0.00104845 8.41155
0.935 -0.247509 -0.160867 -0.445442 -0.00422947 0.0011392 8.4107
0.936 -0.247178 -0.160337 -0.445375 -0.00426452 0.0012294 8.40982
0.937 -0.246842 -0.1598 -0.445307 -0.00429941 0.00131906 8.40891
0.938 -0.246497 -0.159254 -0.44524 -0.00433411 0.00140816 8.40798
0.939 -0.246151 -0.1587 -0.445173 -0.00436863 0.00149673 8.40704
0.94 -0.245802 -0.158137 -0.445104 -0.00440296 0.00158476 8.40608
0.941 -0.24545 -0.157563 -0.445036 -0.00443707 0.00167227 8.40512
0.942 -0.245095 -0.156982 -0.444966 -0.00447096 0.00175928 8.40416
0.943 -0.244738 -0.156395 -0.444894 -0.00450461 0.00184579 8.40319
0.944 -0.24438 -0.1558 -0.444821 -0.00453799 0.00193182 8.40223
0.945 -0.244018 -0.155196 -0.444748 -0.0045711 0.00201738 8.40127
0.946 -0.243657 -0.154583 -0.444673 -0.0046039 0.0021025 8.40032
0.947 -0.243292 -0.153962 -0.444599 -0.00463638 0.00218719 8.39938
0.948 -0.242926 -0.153337 -0.444523 -0.00466852 0.00227148 8.39845
0.949 -0.24256 -0.152705 -0.444449 -0.0047003 0.00235537 8.39753
0.95 -0.24219 -0.152069 -0.444376 -0.00473172 0.0024389 8.39663
0.951 -0.241816 -0.151426 -0.4443 -0.00476274 0.00252208 8.39574
0.952 -0.241444 -0.15078 -0.444224 -0.00479337 0.00260493 8.39487
0.953 -0.241066 -0.150127 -0.444146 -0.00482398 0.00268757 8.3926
0.954 -0.240685 -0.149466 -0.444067 -0.00485477 0.00277014 8.392
0.955 -0.240297 -0.148802 -0.443988 -0.00488509 0.00285245 8.39136
0.956 -0.239904 -0.148136 -0.443908 -0.00491494 0.00293452 8.39068
0.957 -0.239505 -0.147462 -0.443826 -0.00494433 0.00301635 8.38996
0.958 -0.239099 -0.146786 -0.443743 -0.00497324 0.00309794 8.38923
0.959 -0.238691 -0.146107 -0.443662 -0.0050017 0.0031793 8.38847
0.96 -0.238272 -0.145428 -0.44358 -0.00502969 0.00326042 8.38769
0.961 -0.237849 -0.144749 -0.443494 -0.00505723 0.0033413 8.3869
0.962 -0.237415 -0.144067 -0.443409 -0.00508433 0.00342193 8.38611
0.963 -0.236975 -0.143383 -0.443322 -0.005111 0.00350231 8.38531
0.964 -0.236529 -0.142699 -0.443234 -0.00513725 0.00358243 8.3845
0.965 -0.236074 -0.142018 -0.443146 -0.00516309 0.00366227 8.3837
0.966 -0.23561 -0.141337 -0.443058 -0.00518855 0.00374183 8.3829
0.967 -0.235137 -0.140658 -0.44297 -0.00521364 0.00382108 8.38211
0.968 -0.234655 -0.139981 -0.442882 -0.00523837 0.0039 8.38132
0.969 -0.234167 -0.139305 -0.442792 -0.00526278 0.00397858 8.38054
0.97 -0.233671 -0.138631 -0.442702 -0.00528687 0.00405679 8.37978
0.971 -0.233166 -0.137961 -0.442612 -0.00531066 0.00413463 8.37902
0.972 -0.23265 -0.137288 -0.442521 -0.00533427 0.00421223 8.37702
0.973 -0.232124 -0.136615 -0.442429 -0.00535828 0.0042898 8.37665
0.974 -0.231591 -0.135941 -0.442336 -0.00538202 0.00436693 8.37623
0.975 -0.23105 -0.135268 -0.442243 -0.00540551 0.00444362 8.37575
0.976 -0.230497 -0.134594 -0.442148 -0.00542879 0.00451983 8.37524
0.977 -0.229938 -0.13392 -0.442051 -0.00545186 0.00459554 8.37469
0.978 -0.22937 -0.133246 -0.441957 -0.00547474 0.00467074 8.37412
0.979 -0.228794 -0.13257 -0.44186 -0.00549744 0.00474542 8.37351
0.98 -0.228215 -0.13189 -0.441762 -0.00551999 0.00481957 8.37289
0.981 -0.227629 -0.13121 -0.441662 -0.00554238 0.00489316 8.37225
0.982 -0.227037 -0.130527 -0.441563 -0.00556463 0.00496619 8.3716
0.983 -0.226439 -0.129841 -0.441464 -0.00558674 0.00503866 8.37095
0.984 -0.225839 -0.129152 -0.441367 -0.00560871 0.00511056 8.37028
0.985 -0.225234 -0.128459 -0.441266 -0.00563055 0.00518189 8.36962
0.986 -0.224629 -0.127763 -0.441163 -0.00565226 0.00525264 8.36895
0.987 -0.22402 -0.127062 -0.44106 -0.00567382 0.00532283 8.36828
0.988 -0.223411 -0.126356 -0.440957 -0.00569524 0.00539246 8.36762
0.989 -0.222802 -0.125648 -0.440854 -0.0057165 0.00546153 8.36696
0.99 -0.22219 -0.124934 -0.440751 -0.0057376 0.00553006 8.36631
0.991 -0.221578 -0.124217 -0.440645 -0.00575848 0.00559766 8.36456
0.992 -0.220966 -0.123491 -0.44054 -0.00577987 0.00566529 8.36441
0.993 -0.220353 -0.122759 -0.440434 -0.00580102 0.00573243 8.36418
0.994 -0.219742 -0.122022 -0.440325 -0.00582194 0.0057991 8.36391
0.995 -0.219128 -0.121278 -0.440216 -0.0058426 0.00586531 8.36358
0.996 -0.218516 -0.120528 -0.440109 -0.00586299 0.00593108 8.36321
0.997 -0.217904 -0.119771 -0.439999 -0.00588309 0.00599642 8.3628
0.998 -0.217294 -0.11901 -0.439888 -0.0059029 0.00606136 8.36236
0.999 -0.216681 -0.118247 -0.439778 -0.00592239 0.0061259 8.36189
1 -0.216068 -0.117476 -0.439669 -0.00594156 0.00619007 8.3614
1.001 -0.215456 -0.116701 -0.439557 -0.00596039 0.00625388 8.36089
1.002 -0.214842 -0.115922 -0.439443 -0.00597887 0.00631736 8.36037
1.003 -0.214228 -0.11514 -0.439328 -0.00599698 0.00638051 8.35983
1.004 -0.21361 -0.114355 -0.439212 -0.00601473 0.00644335 8.35929
1.006 -0.212371 -0.112781 -0.438984 -0.00604906 0.00656814 8.35818
1.007 -0.211748 -0.111993 -0.438868 -0.00606564 0.00663012 8.35763
1.008 -0.211123 -0.111204 -0.438752 -0.00608183 0.00669182 8.35707
1.009 -0.210496 -0.110414 -0.438636 -0.00609762 0.00675326 8.35652
1.01 -0.209867 -0.109625 -0.438519 -0.00611303 0.00681444 8.35597
1.011 -0.209233 -0.108834 -0.438403 -0.00612764 0.00687493 8.35427
1.012 -0.208593 -0.108045 -0.438284 -0.00614269 0.00693598 8.35436
1.013 -0.20795 -0.107256 -0.438167 -0.00615734 0.00699675 8.35438
1.014 -0.207298 -0.106469 -0.438047 -0.00617159 0.00705725 8.35432
1.015 -0.206644 -0.105681 -0.437927 -0.00618546 0.00711745 8.3542
1.016 -0.205984 -0.104898 -0.437808 -0.00619896 0.00717736 8.35403
1.017 -0.205319 -0.104114 -0.437685 -0.00621211 0.00723697 8.35381
1.018 -0.204649 -0.103337 -0.437561 -0.00622493 0.00729626 8.35355
1.019 -0.203971 -0.102559 -0.437438 -0.00623743 0.00735522 8.35326
1.02 -0.203285 -0.101783 -0.437314 -0.00624963 0.00741383 8.35293
1.021 -0.202597 -0.101008 -0.43719 -0.00626155 0.00747209 8.35258
1.022 -0.201902 -0.100237 -0.437064 -0.0062732 0.00752998 8.3522
1.023 -0.2012 -0.0994689 -0.436936 -0.00628461 0.00758748 8.35181
1.024 -0.200492 -0.098701 -0.436809 -0.00629578 0.00764458 8.3514
1.025 -0.199778 -0.0979361 -0.436684 -0.00630675 0.00770126 8.35097
1.026 -0.19906 -0.0971731 -0.436558 -0.00631752 0.00775751 8.35054
1.027 -0.198339 -0.0964114 -0.436429 -0.00632812 0.00781332 8.3501
1.028 -0.197611 -0.0956499 -0.436302 -0.00633855 0.00786867 8.34965
1.029 -0.19688 -0.0948884 -0.436172 -0.00634882 0.00792355 8.3492
1.03 -0.196147 -0.0941297 -0.436041 -0.00635848 0.00797754 8.34794
1.031 -0.19541 -0.0933717 -0.435912 -0.00636874 0.00803185 8.34819
1.032 -0.19467 -0.0926121 -0.435781 -0.00637885 0.00808564 8.34835
1.033 -0.193928 -0.0918523 -0.435647 -0.00638881 0.00813891 8.34843
1.034 -0.193185 -0.0910922 -0.435515 -0.00639864 0.00819166 8.34845
1.035 -0.192439 -0.0903332 -0.435382 -0.00640833 0.00824389 8.34842
1.036 -0.191691 -0.0895711 -0.435246 -0.0064179 0.00829559 8.34832
1.037 -0.19094 -0.0888058 -0.435113 -0.00642734 0.00834678 8.34819
1.038 -0.190192 -0.0880392 -0.434978 -0.00643666 0.00839746 8.34801
1.039 -0.189442 -0.0872693 -0.434839 -0.00644584 0.00844763 8.34779
1.04 -0.188692 -0.0864985 -0.434703 -0.00645489 0.00849731 8.34755
1.041 -0.187944 -0.0857247 -0.434567 -0.0064638 0.00854651 8.34728
1.042 -0.187196 -0.0849465 -0.43443 -0.00647256 0.00859523 8.34699
1.043 -0.18645 -0.0841672 -0.434291 -0.00648116 0.00864349 8.34667
1.044 -0.185702 -0.0833831 -0.434152 -0.00648959 0.00869131 8.34634
1.045 -0.184957 -0.0825957 -0.434014 -0.00649784 0.00873869 8.346
1.046 -0.184214 -0.0818075 -0.433874 -0.00650589 0.00878566 8.34565
1.047 -0.183473 -0.0810145 -0.433735 -0.00651375 0.00883223 8.34529
1.048 -0.182731 -0.0802196 -0.433594 -0.00652138 0.00887841 8.34492
1.049 -0.181994 -0.0794227 -0.433455 -0.00652821 0.00892349 8.34386
1.05 -0.181258 -0.0786221 -0.433314 -0.00653554 0.00896915 8.34428
1.051 -0.180524 -0.0778222 -0.43317 -0.00654259 0.00901444 8.3446
1.052 -0.179791 -0.0770198 -0.433027 -0.00654934 0.00905937 8.34484
1.053 -0.179061 -0.076215 -0.432881 -0.0065558 0.00910397 8.34501
1.054 -0.17833 -0.0754094 -0.432738 -0.00656195 0.00914825 8.34511
1.055 -0.1776 -0.074601 -0.432593 -0.0065678 0.00919221 8.34515
1.056 -0.176868 -0.0737948 -0.432447 -0.00657332 0.00923588 8.34514
1.057 -0.176135 -0.0729853 -0.432302 -0.00657852 0.00927926 8.34509
1.058 -0.175403 -0.0721784 -0.432155 -0.00658341 0.00932237 8.345
1.059 -0.174671 -0.0713715 -0.43201 -0.00658797 0.00936521 8.34487
1.06 -0.173938 -0.070564 -0.431862 -0.00659221 0.00940779 8.34471
1.061 -0.173206 -0.0697574 -0.431713 -0.00659614 0.00945011 8.34452
1.062 -0.172469 -0.0689503 -0.431566 -0.00659974 0.00949218 8.34431
1.063 -0.171728 -0.0681502 -0.431417 -0.00660304 0.00953399 8.34408
1.064 -0.170987 -0.0673487 -0.431269 -0.00660604 0.00957555 8.34383
1.065 -0.170242 -0.0665483 -0.43112 -0.00660874 0.00961686 8.34357
1.066 -0.169496 -0.065753 -0.43097 -0.00661115 0.0096579 8.34329
1.067 -0.168746 -0.0649613 -0.43082 -0.00661329 0.00969868 8.343
1.068 -0.167996 -0.0641715 -0.430669 -0.00661445 0.00973877 8.34226
1.069 -0.167244 -0.0633857 -0.430517 -0.00661604 0.00977949 8.34283
1.07 -0.166487 -0.0626035 -0.430364 -0.00661735 0.00981988 8.3433
1.071 -0.165729 -0.0618233 -0.430211 -0.00661841 0.00985992 8.34368
1.072 -0.164963 -0.0610499 -0.430059 -0.00661924 0.0098996 8.34399
1.073 -0.164195 -0.0602779 -0.429904 -0.00661985 0.00993892 8.34423
1.074 -0.163427 -0.0595117 -0.429747 -0.00662026 0.00997787 8.3444
1.075 -0.162655 -0.0587473 -0.429589 -0.00662048 0.0100165 8.34451
1.076 -0.16188 -0.0579859 -0.429433 -0.00662053 0.0100546 8.34457
1.077 -0.161103 -0.0572271 -0.429277 -0.00662042 0.0100924 8.34459
1.078 -0.160323 -0.0564718 -0.42912 -0.00662017 0.0101298 8.34457
1.079 -0.159541 -0.0557201 -0.428964 -0.00661979 0.0101668 8.34451
1.08 -0.158757 -0.0549687 -0.428807 -0.00661929 0.0102034 8.34443
1.081 -0.157972 -0.05422 -0.428648 -0.00661868 0.0102396 8.34431
1.082 -0.157186 -0.0534714 -0.428488 -0.00661797 0.0102754 8.34417
1.083 -0.156399 -0.0527256 -0.428329 -0.00661717 0.0103107 8.34401
1.084 -0.155612 -0.0519799 -0.428167 -0.00661628 0.0103457 8.34383
1.085 -0.154824 -0.051234 -0.428008 -0.00661531 0.0103802 8.34363
1.086 -0.154037 -0.0504866 -0.427846 -0.00661426 0.0104143 8.34342
1.087 -0.153247 -0.0497421 -0.427687 -0.00661226 0.0104472 8.34266
1.088 -0.152464 -0.0489989 -0.427523 -0.00661097 0.0104809 8.34339
1.089 -0.151681 -0.0482555 -0.42736 -0.00660956 0.010514 8.34402
1.09 -0.150899 -0.0475156 -0.427194 -0.00660805 0.0105468 8.34456
1.091 -0.150119 -0.0467726 -0.42703 -0.00660642 0.0105791 8.34501
1.092 -0.149343 -0.0460302 -0.426862 -0.00660468 0.0106109 8.34538
1.093 -0.148565 -0.0452846 -0.426697 -0.00660283 0.0106423 8.34568
1.094 -0.14779 -0.0445409 -0.426531 -0.00660085 0.0106734 8.34593
1.095 -0.147018 -0.0437962 -0.426364 -0.00659875 0.010704 8.34611
1.096 -0.146249 -0.0430497 -0.426194 -0.0065965 0.0107342 8.34625
1.097 -0.145482 -0.0423006 -0.426027 -0.00659412 0.0107641 8.34633
1.098 -0.144717 -0.0415498 -0.425859 -0.00659158 0.0107937 8.34638
1.099 -0.143954 -0.0407999 -0.425689 -0.00658889 0.0108228 8.3464
1.1 -0.143193 -0.0400486 -0.425519 -0.00658603 0.0108517 8.34638
1.101 -0.142434 -0.0392995 -0.42535 -0.00658299 0.0108803 8.34633
1.102 -0.141675 -0.0385463 -0.42518 -0.00657977 0.0109085 8.34626
1.103 -0.14092 -0.0377936 -0.425011 -0.00657636 0.0109365 8.34617
1.104 -0.140167 -0.0370432 -0.424841 -0.00657275 0.0109642 8.34605
1.105 -0.139416 -0.0362911 -0.42467 -0.00656894 0.0109917 8.34592
1.106 -0.13867 -0.0355407 -0.424497 -0.00656397 0.0110181 8.34535
1.107 -0.137925 -0.0347913 -0.424326 -0.00655954 0.0110455 8.34623
1.108 -0.137179 -0.0340425 -0.424151 -0.00655487 0.0110725 8.347
1.109 -0.136432 -0.0332967 -0.423978 -0.00654995 0.0110993 8.34767
1.11 -0.135688 -0.032555 -0.4238 -0.00654479 0.0111258 8.34825
1.111 -0.134945 -0.0318137 -0.423625 -0.00653939 0.0111521 8.34875
1.112 -0.134205 -0.0310761 -0.423447 -0.00653375 0.011178 8.34917
1.113 -0.133463 -0.0303411 -0.423269 -0.00652787 0.0112038 8.34953
1.114 -0.132722 -0.0296099 -0.423093 -0.00652177 0.0112292 8.34982
1.115 -0.131982 -0.028879 -0.422917 -0.00651545 0.0112544 8.35006
1.116 -0.131241 -0.0281517 -0.422738 -0.00650891 0.0112794 8.35025
1.117 -0.130498 -0.0274277 -0.422559 -0.00650217 0.0113041 8.3504
1.118 -0.129757 -0.0267068 -0.422382 -0.00649523 0.0113286 8.35051
1.119 -0.129012 -0.0259896 -0.422204 -0.0064881 0.0113528 8.35058
1.122 -0.126777 -0.0238616 -0.421666 -0.0064657 0.011424 8.35061
1.123 -0.12603 -0.0231585 -0.421486 -0.00645793 0.0114472 8.35057
1.124 -0.125281 -0.0224588 -0.421306 -0.00645002 0.0114702 8.35052
1.125 -0.124531 -0.0217614 -0.421125 -0.00644199 0.0114929 8.35044
1.126 -0.123781 -0.0210664 -0.420943 -0.00643385 0.0115153 8.35035
1.127 -0.123032 -0.0203765 -0.420762 -0.00642459 0.0115369 8.35015
1.128 -0.122283 -0.0196901 -0.420581 -0.00641591 0.0115594 8.35125
1.129 -0.121532 -0.0190102 -0.420398 -0.00640712 0.0115816 8.35223
1.13 -0.120782 -0.0183343 -0.420215 -0.00639822 0.0116033 8.35309
1.131 -0.120033 -0.0176616 -0.420032 -0.00638924 0.0116247 8.35385
1.132 -0.119284 -0.016989 -0.419847 -0.00638017 0.0116456 8.35452
1.133 -0.118534 -0.0163237 -0.419663 -0.00637102 0.0116662 8.35511
1.134 -0.117786 -0.0156621 -0.419478 -0.00636182 0.0116864 8.35562
1.135 -0.117039 -0.015002 -0.419293 -0.00635255 0.0117063 8.35606
1.136 -0.116293 -0.014343 -0.419107 -0.00634323 0.0117258 8.35644
1.137 -0.115547 -0.013684 -0.418918 -0.00633386 0.0117449 8.35676
1.138 -0.114807 -0.0130299 -0.41873 -0.00632444 0.0117636 8.35703
1.139 -0.114066 -0.0123751 -0.418541 -0.00631498 0.0117821 8.35726
1.14 -0.113329 -0.0117218 -0.418351 -0.00630547 0.0118001 8.35744
1.141 -0.112589 -0.0110681 -0.418163 -0.00629591 0.0118179 8.35758
1.142 -0.111855 -0.010417 -0.417973 -0.0062863 0.0118353 8.35769
1.143 -0.111122 -0.00976669 -0.417784 -0.00627664 0.0118523 8.35778
1.144 -0.110389 -0.00911578 -0.417597 -0.00626693 0.0118691 8.35783
1.145 -0.109661 -0.00846709 -0.417408 -0.00625715 0.0118856 8.35786
1.146 -0.108936 -0.00782027 -0.417216 -0.00624634 0.0119011 8.35775
1.147 -0.108217 -0.00717474 -0.417027 -0.0062361 0.0119175 8.35891
1.148 -0.107502 -0.00652906 -0.416835 -0.00622576 0.0119336 8.35995
1.149 -0.10679 -0.00588589 -0.416644 -0.00621531 0.0119493 8.36088
1.15 -0.106081 -0.00524367 -0.416452 -0.00620474 0.0119647 8.36171
1.151 -0.105375 -0.00460507 -0.41626 -0.00619407 0.0119798 8.36244
1.152 -0.104672 -0.00396338 -0.416067 -0.00618328 0.0119946 8.36309
1.153 -0.103972 -0.00332679 -0.415874 -0.00617237 0.0120091 8.36366
1.154 -0.103275 -0.00269194 -0.415678 -0.00616133 0.0120233 8.36416
1.155 -0.102582 -0.00205688 -0.415481 -0.00615016 0.0120373 8.3646
1.156 -0.101892 -0.0014241 -0.415287 -0.00613887 0.012051 8.36499
1.157 -0.101203 -0.000789855 -0.415093 -0.00612744 0.0120645 8.36531
1.158 -0.100518 -0.000159648 -0.414897 -0.00611588 0.0120778 8.3656
1.159 -0.0998345 0.000470018 -0.414701 -0.00610418 0.0120908 8.36584
1.16 -0.0991512 0.00109519 -0.414503 -0.00609235 0.0121037 8.36604
1.161 -0.0984696 0.00171967 -0.414305 -0.00608038 0.0121164 8.3662
1.162 -0.0977922 0.0023417 -0.414109 -0.00606828 0.0121289 8.36633
1.163 -0.0971132 0.00296382 -0.413911 -0.00605605 0.0121412 8.36644
1.164 -0.0964373 0.0035841 -0.413715 -0.00604369 0.0121533 8.36652
1.165 -0.0957607 0.00419857 -0.413517 -0.0060312 0.0121653 8.36658
1.166 -0.0950862 0.00480864 -0.413317 -0.00601818 0.0121778 8.36787
1.167 -0.0944118 0.00541658 -0.413118 -0.006005 0.0121901 8.36903
1.168 -0.0937419 0.00601784 -0.412919 -0.00599169 0.0122021 8.37008
1.169 -0.093073 0.00661351 -0.412719 -0.00597825 0.0122138 8.37102
1.17 -0.0924037 0.00720475 -0.412517 -0.00596469 0.0122253 8.37186
1.171 -0.091736 0.00779374 -0.412318 -0.00595102 0.0122365 8.37261
1.172 -0.0910692 0.0083767 -0.412115 -0.00593724 0.0122475 8.37328
1.173 -0.0904028 0.00895544 -0.411915 -0.00592337 0.0122582 8.37387
1.174 -0.0897367 0.0095309 -0.41171 -0.00590941 0.0122687 8.3744
1.175 -0.0890723 0.0101026 -0.411507 -0.00589538 0.012279 8.37487
1.176 -0.0884087 0.0106695 -0.411305 -0.00588129 0.012289 8.37527
1.177 -0.0877435 0.0112337 -0.4111 -0.00586713 0.0122988 8.37563
1.178 -0.0870785 0.0117951 -0.410896 -0.00585292 0.0123083 8.37594
1.179 -0.0864148 0.0123525 -0.410693 -0.00583867 0.0123176 8.37621
1.18 -0.0857544 0.0129056 -0.410489 -0.00582439 0.0123267 8.37645
1.181 -0.0850939 0.0134571 -0.410284 -0.00581007 0.0123355 8.37664
1.182 -0.0844329 0.0140061 -0.410081 -0.00579574 0.012344 8.37681
1.183 -0.0837731 0.0145504 -0.409874 -0.00578138 0.0123524 8.37695
1.184 -0.0831194 0.0150883 -0.40967 -0.00576603 0.0123601 8.37722
1.185 -0.0824665 0.0156245 -0.409465 -0.00575068 0.0123675 8.37743
1.186 -0.0818151 0.0161551 -0.409258 -0.00573584 0.0123758 8.37874
1.187 -0.0811657 0.0166826 -0.409049 -0.00572097 0.0123837 8.37994
1.188 -0.0805207 0.0172079 -0.408842 -0.00570607 0.0123913 8.38102
1.189 -0.0798768 0.0177304 -0.408634 -0.00569115 0.0123986 8.38199
1.19 -0.079236 0.0182501 -0.408426 -0.00567622 0.0124055 8.38287
1.191 -0.078599 0.0187652 -0.408217 -0.00566127 0.0124122 8.38367
1.192 -0.0779647 0.019279 -0.408007 -0.00564631 0.0124185 8.38438
1.193 -0.0773315 0.0197927 -0.407797 -0.00563133 0.0124245 8.38502
1.194 -0.0767019 0.0203023 -0.407586 -0.00561634 0.0124303 8.38559
1.195 -0.0760749 0.0208132 -0.407375 -0.00560133 0.0124358 8.3861
1.196 -0.0754545 0.0213168 -0.407165 -0.0055863 0.0124411 8.38656
1.197 -0.0748371 0.0218232 -0.406954 -0.00557125 0.0124461 8.38697
1.198 -0.0742205 0.0223264 -0.40674 -0.00555619 0.0124508 8.38733
1.199 -0.073607 0.0228266 -0.406531 -0.00554109 0.0124553 8.38764
1.2 -0.0729957 0.0233281 -0.40632 -0.00552597 0.0124596 8.38792
1.201 -0.0723895 0.0238283 -0.406108 -0.00551082 0.0124637 8.38817
1.202 -0.0717856 0.024328 -0.405896 -0.00549563 0.0124677 8.38838
1.203 -0.0711873 0.0248272 -0.405683 -0.00547942 0.0124709 8.38871
1.204 -0.0705933 0.0253191 -0.405468 -0.00546359 0.0124751 8.39027
1.205 -0.0700064 0.0258071 -0.405255 -0.0054477 0.0124789 8.39169
1.206 -0.0694216 0.0262896 -0.405042 -0.00543176 0.0124826 8.39297
1.207 -0.0688405 0.0267704 -0.404828 -0.00541575 0.012486 8.39414
1.208 -0.0682625 0.0272509 -0.404613 -0.00539969 0.0124891 8.3952
1.209 -0.0676865 0.027726 -0.404398 -0.00538356 0.0124921 8.39615
1.21 -0.0671141 0.0281984 -0.404181 -0.00536738 0.0124949 8.39702
1.211 -0.066547 0.0286664 -0.403965 -0.00535114 0.0124974 8.3978
1.212 -0.0659816 0.0291341 -0.403748 -0.00533484 0.0124998 8.3985
1.213 -0.0654195 0.0295976 -0.403532 -0.00531849 0.0125021 8.39913
1.214 -0.0648613 0.0300576 -0.403315 -0.00530208 0.0125042 8.3997
1.215 -0.0643038 0.0305161 -0.403098 -0.00528562 0.0125061 8.40021
1.216 -0.0637531 0.0309704 -0.40288 -0.00526912 0.0125079 8.40067
1.217 -0.0632001 0.031423 -0.402663 -0.00525256 0.0125096 8.40108
1.218 -0.0626499 0.0318715 -0.402444 -0.00523597 0.0125111 8.40144
1.219 -0.0620987 0.0323169 -0.402226 -0.00521933 0.0125126 8.40176
1.22 -0.0615498 0.0327607 -0.402007 -0.00520266 0.0125138 8.40205
1.221 -0.061004 0.0332007 -0.401788 -0.00518596 0.012515 8.4023
1.222 -0.0604582 0.0336337 -0.401569 -0.00516827 0.0125158 8.40273
1.223 -0.0599158 0.034063 -0.401348 -0.00515087 0.0125175 8.40439
1.224 -0.0593748 0.0344867 -0.401126 -0.00513345 0.0125189 8.4059
1.226 -0.0582997 0.0353191 -0.400684 -0.00509854 0.012521 8.40852
1.227 -0.0577651 0.0357265 -0.400462 -0.00508107 0.0125218 8.40966
1.228 -0.0572319 0.0361283 -0.40024 -0.00506359 0.0125224 8.41069
1.229 -0.0566998 0.0365275 -0.400017 -0.00504611 0.0125227 8.41162
1.23 -0.0561679 0.0369253 -0.399793 -0.00502864 0.0125228 8.41247
1.231 -0.0556397 0.0373172 -0.399571 -0.00501118 0.0125228 8.41324
1.232 -0.0551131 0.0377048 -0.399347 -0.00499373 0.0125225 8.41393
1.233 -0.0545896 0.0380905 -0.399122 -0.00497631 0.012522 8.41455
1.234 -0.0540663 0.038475 -0.398894 -0.00495891 0.0125213 8.41512
1.235 -0.0535429 0.038853 -0.398669 -0.00494153 0.0125204 8.41562
1.236 -0.0530233 0.0392306 -0.398444 -0.00492419 0.0125194 8.41608
1.237 -0.0525045 0.0396061 -0.398218 -0.00490688 0.0125181 8.41648
1.238 -0.0519878 0.039977 -0.397991 -0.00488961 0.0125166 8.41685
1.239 -0.0514735 0.0403495 -0.397765 -0.00487237 0.012515 8.41717
1.24 -0.0509617 0.0407197 -0.39754 -0.00485517 0.0125131 8.41746
1.241 -0.0504488 0.0410886 -0.397314 -0.004838 0.0125111 8.41771
1.242 -0.0499423 0.0414531 -0.397089 -0.0048205 0.0125087 8.41795
1.243 -0.0494394 0.0418136 -0.396863 -0.00480272 0.0125071 8.41979
1.244 -0.0489395 0.0421709 -0.396637 -0.00478497 0.0125052 8.42146
1.245 -0.0484452 0.0425244 -0.396409 -0.00476724 0.012503 8.42299
1.246 -0.0479544 0.0428716 -0.39618 -0.00474955 0.0125005 8.42439
1.247 -0.0474663 0.0432168 -0.395953 -0.00473189 0.0124978 8.42566
1.248 -0.0469836 0.0435592 -0.395723 -0.00471425 0.0124949 8.42681
1.249 -0.046508 0.0438977 -0.395493 -0.00469664 0.0124918 8.42786
1.25 -0.0460328 0.0442342 -0.395262 -0.00467906 0.0124884 8.42882
1.251 -0.0455627 0.0445691 -0.395032 -0.0046615 0.0124848 8.42969
1.252 -0.0450967 0.0449006 -0.394803 -0.00464397 0.0124811 8.43047
1.253 -0.0446337 0.0452288 -0.394574 -0.00462646 0.0124771 8.43118
1.254 -0.0441749 0.0455557 -0.394346 -0.00460897 0.0124731 8.43183
1.255 -0.04372 0.0458794 -0.394114 -0.00459149 0.0124688 8.43241
1.256 -0.0432662 0.0462043 -0.393885 -0.00457404 0.0124644 8.43294
1.257 -0.0428184 0.0465242 -0.393652 -0.0045566 0.0124599 8.43341
1.258 -0.0423719 0.046845 -0.393421 -0.00453918 0.0124553 8.43384
1.259 -0.0419275 0.0471621 -0.393188 -0.00452177 0.0124506 8.43422
1.26 -0.0414865 0.0474792 -0.392956 -0.00450437 0.0124458 8.43456
1.261 -0.0410495 0.0477911 -0.392724 -0.00448698 0.0124409 8.43487
1.262 -0.0406153 0.0480991 -0.392494 -0.00446865 0.0124357 8.43552
1.263 -0.0401847 0.048406 -0.392261 -0.00445057 0.0124314 8.43742
1.264 -0.0397591 0.0487058 -0.392029 -0.00443249 0.012427 8.43916
1.265 -0.0393381 0.0490018 -0.391795 -0.00441442 0.0124223 8.44075
1.266 -0.0389208 0.0492952 -0.39156 -0.00439635 0.0124176 8.44221
1.267 -0.038504 0.0495827 -0.391326 -0.0043783 0.0124126 8.44353
1.268 -0.0380876 0.0498673 -0.391091 -0.00436026 0.0124076 8.44475
1.269 -0.0376759 0.0501485 -0.390856 -0.00434223 0.0124024 8.44585
1.27 -0.0372662 0.0504234 -0.39062 -0.00432422 0.0123972 8.44685
1.271 -0.0368574 0.0506983 -0.390385 -0.00430622 0.0123918 8.44777
1.272 -0.0364521 0.0509675 -0.39015 -0.00428825 0.0123863 8.4486
1.273 -0.0360448 0.0512337 -0.389914 -0.0042703 0.0123807 8.44936
1.274 -0.0356407 0.0514958 -0.389678 -0.00425237 0.012375 8.45004
1.275 -0.0352369 0.0517557 -0.389443 -0.00423448 0.0123692 8.45067
1.276 -0.0348366 0.052014 -0.389208 -0.00421661 0.0123633 8.45123
1.277 -0.034436 0.0522697 -0.388972 -0.00419879 0.0123573 8.45174
1.278 -0.0340356 0.0525208 -0.388735 -0.00418099 0.0123512 8.45221
1.279 -0.0336372 0.0527717 -0.388497 -0.00416325 0.012345 8.45262
1.28 -0.0332374 0.0530178 -0.38826 -0.00414554 0.0123387 8.453
1.281 -0.0328399 0.0532593 -0.388024 -0.00412701 0.0123322 8.45379
1.282 -0.0324445 0.0534974 -0.387786 -0.00410872 0.0123266 8.45571
1.283 -0.0320537 0.0537308 -0.387549 -0.00409047 0.0123207 8.45747
1.284 -0.0316633 0.0539587 -0.38731 -0.00407228 0.0123145 8.45907
1.285 -0.0312765 0.0541817 -0.387071 -0.00405415 0.0123082 8.46055
1.286 -0.0308932 0.0544007 -0.386829 -0.00403609 0.0123017 8.46189
1.287 -0.0305115 0.054618 -0.38659 -0.00401808 0.012295 8.46312
1.288 -0.0301319 0.0548353 -0.38635 -0.00400014 0.0122881 8.46424
1.289 -0.0297528 0.0550437 -0.386109 -0.00398227 0.012281 8.46527
1.29 -0.0293747 0.0552513 -0.385869 -0.00396447 0.0122737 8.4662
1.291 -0.0290031 0.0554543 -0.385629 -0.00394675 0.0122662 8.46705
1.292 -0.028632 0.0556554 -0.385388 -0.00392909 0.0122586 8.46783
1.293 -0.0282631 0.055854 -0.385146 -0.00391151 0.0122508 8.46854
1.294 -0.0278965 0.0560521 -0.384905 -0.003894 0.0122428 8.46918
1.295 -0.0275331 0.0562462 -0.384663 -0.00387656 0.0122347 8.46976
1.296 -0.0271722 0.0564376 -0.38442 -0.0038592 0.0122264 8.4703
1.297 -0.0268155 0.0566315 -0.384179 -0.00384191 0.012218 8.47078
1.298 -0.0264599 0.0568209 -0.383936 -0.0038247 0.0122094 8.47121
1.301 -0.0254146 0.0573787 -0.383209 -0.0037728 0.0121838 8.47399
1.302 -0.0250733 0.05756 -0.382966 -0.00375518 0.0121755 8.47584
1.303 -0.0247346 0.0577378 -0.382722 -0.00373764 0.0121669 8.47754
1.304 -0.024401 0.0579102 -0.382476 -0.00372016 0.0121583 8.4791
1.305 -0.0240729 0.0580795 -0.38223 -0.00370274 0.0121494 8.48053
1.306 -0.0237491 0.0582465 -0.381984 -0.00368539 0.0121404 8.48183
1.307 -0.0234282 0.0584112 -0.381738 -0.00366809 0.0121313 8.48303
1.308 -0.0231099 0.058573 -0.381493 -0.00365086 0.012122 8.48412
1.309 -0.0227977 0.0587335 -0.381248 -0.00363368 0.0121127 8.48512
1.31 -0.0224881 0.0588917 -0.381002 -0.00361656 0.0121032 8.48603
1.311 -0.0221784 0.0590474 -0.380757 -0.00359949 0.0120937 8.48686
1.312 -0.0218719 0.0591988 -0.380511 -0.00358247 0.0120841 8.48762
1.313 -0.0215691 0.0593497 -0.380264 -0.0035655 0.0120745 8.48832
1.314 -0.0212669 0.0594973 -0.380017 -0.00354858 0.0120648 8.48895
1.315 -0.0209679 0.0596453 -0.379771 -0.00353171 0.012055 8.48953
1.316 -0.0206715 0.0597906 -0.379525 -0.00351489 0.0120452 8.49005
1.317 -0.0203758 0.0599333 -0.379278 -0.00349811 0.0120354 8.49053
1.318 -0.0200795 0.0600757 -0.379031 -0.00348138 0.0120256 8.49096
1.319 -0.0197856 0.0602164 -0.378785 -0.0034647 0.0120157 8.49135
1.32 -0.0194921 0.0603525 -0.378537 -0.00344806 0.0120058 8.49171
1.321 -0.0192034 0.0604881 -0.378291 -0.0034306 0.011996 8.49281
1.322 -0.0189153 0.0606174 -0.378043 -0.00341332 0.011987 8.49494
1.323 -0.0186291 0.0607415 -0.377796 -0.00339609 0.0119779 8.49691
1.324 -0.0183439 0.0608607 -0.377547 -0.00337892 0.0119686 8.49871
1.325 -0.0180637 0.060977 -0.377297 -0.00336181 0.0119593 8.50036
1.326 -0.0177831 0.0610875 -0.377048 -0.00334475 0.0119498 8.50188
1.327 -0.017504 0.0611952 -0.376799 -0.00332775 0.0119402 8.50327
1.328 -0.0172258 0.0612999 -0.376548 -0.00331082 0.0119306 8.50454
1.329 -0.016948 0.0614015 -0.376299 -0.00329396 0.0119208 8.50571
1.33 -0.0166697 0.0614977 -0.37605 -0.00327716 0.0119109 8.50678
1.331 -0.0163922 0.0615942 -0.375801 -0.00326043 0.0119009 8.50777
1.332 -0.0161148 0.0616863 -0.375552 -0.00324378 0.0118908 8.50866
1.333 -0.0158395 0.061776 -0.3753 -0.0032272 0.0118806 8.50949
1.334 -0.0155635 0.0618631 -0.375048 -0.0032107 0.0118703 8.51024
1.335 -0.0152912 0.0619482 -0.374797 -0.00319429 0.0118599 8.51093
1.336 -0.0150173 0.0620308 -0.374548 -0.00317796 0.0118493 8.51156
1.337 -0.0147443 0.0621105 -0.374296 -0.00316172 0.0118387 8.51213
1.338 -0.0144721 0.0621891 -0.374044 -0.00314556 0.011828 8.51266
1.339 -0.0142037 0.062266 -0.373794 -0.0031295 0.0118171 8.51314
1.34 -0.0139368 0.0623396 -0.373542 -0.00311278 0.0118061 8.51415
1.341 -0.0136727 0.0624077 -0.373292 -0.00309627 0.0117959 8.51625
1.342 -0.0134107 0.0624725 -0.37304 -0.00307986 0.0117855 8.51818
1.343 -0.013151 0.0625335 -0.372787 -0.00306355 0.0117748 8.51996
1.344 -0.0128947 0.0625916 -0.372533 -0.00304735 0.011764 8.5216
1.345 -0.0126416 0.0626462 -0.372279 -0.00303125 0.011753 8.5231
1.346 -0.0123919 0.0626971 -0.372025 -0.00301526 0.0117418 8.52447
1.347 -0.0121444 0.0627469 -0.37177 -0.00299937 0.0117305 8.52574
1.348 -0.0118998 0.0627928 -0.371516 -0.00298359 0.0117191 8.5269
1.349 -0.0116572 0.0628406 -0.371262 -0.00296791 0.0117075 8.52797
1.35 -0.0114197 0.0628828 -0.371004 -0.00295232 0.0116958 8.52895
1.351 -0.0111861 0.0629246 -0.370749 -0.00293684 0.0116839 8.52985
1.352 -0.0109535 0.0629658 -0.370493 -0.00292146 0.011672 8.53067
1.353 -0.0107221 0.0630069 -0.370239 -0.00290617 0.0116599 8.53143
1.354 -0.0104953 0.063045 -0.369983 -0.00289097 0.0116478 8.53212
1.355 -0.010272 0.0630846 -0.369727 -0.00287586 0.0116356 8.53275
1.356 -0.01005 0.0631208 -0.369474 -0.00286084 0.0116234 8.53333
1.357 -0.00982955 0.0631555 -0.369219 -0.0028459 0.0116111 8.53387
1.358 -0.00961195 0.0631911 -0.368964 -0.00283105 0.0115987 8.53435
1.359 -0.0093986 0.0632218 -0.368708 -0.00281558 0.0115863 8.5355
1.36 -0.00919267 0.0632497 -0.36845 -0.00280028 0.0115746 8.53762
1.361 -0.00898484 0.0632781 -0.368194 -0.00278506 0.0115629 8.53957
1.362 -0.00878136 0.0632996 -0.367936 -0.00276992 0.011551 8.54137
1.363 -0.00858353 0.0633204 -0.36768 -0.00275485 0.0115391 8.54302
1.364 -0.00838545 0.0633372 -0.367421 -0.00273986 0.0115271 8.54454
1.365 -0.00819217 0.0633536 -0.367165 -0.00272493 0.0115151 8.54594
1.366 -0.00799847 0.0633682 -0.36691 -0.00271007 0.011503 8.54722
1.367 -0.00780722 0.063379 -0.366652 -0.00269527 0.0114908 8.54841
1.368 -0.00761771 0.0633897 -0.366395 -0.00268054 0.0114787 8.54949
1.369 -0.00743033 0.0633958 -0.366136 -0.00266588 0.0114665 8.55049
1.37 -0.00724232 0.0634012 -0.365877 -0.00265127 0.0114542 8.55141
1.371 -0.00705549 0.0634036 -0.365617 -0.00263672 0.011442 8.55226
1.372 -0.00686924 0.0634043 -0.365359 -0.00262224 0.0114298 8.55303
1.373 -0.00668362 0.0634048 -0.365103 -0.00260781 0.0114175 8.55375
1.374 -0.00649835 0.0634017 -0.364843 -0.00259345 0.0114052 8.5544
1.375 -0.00631087 0.0633946 -0.364584 -0.00257915 0.0113929 8.555
1.376 -0.00612637 0.0633849 -0.364326 -0.00256491 0.0113806 8.55555
1.377 -0.00593984 0.0633763 -0.364065 -0.00255074 0.0113683 8.55606
1.378 -0.00575625 0.0633628 -0.363806 -0.00253601 0.0113561 8.55741
1.379 -0.00557374 0.0633469 -0.363546 -0.0025214 0.0113446 8.55955
1.38 -0.00539285 0.0633246 -0.363286 -0.00250688 0.011333 8.56152
1.381 -0.00521132 0.0632979 -0.363025 -0.00249244 0.0113212 8.56333
1.382 -0.00503167 0.0632708 -0.362764 -0.0024781 0.0113093 8.56501
1.383 -0.00485077 0.0632394 -0.362503 -0.00246384 0.0112973 8.56655
1.384 -0.00467311 0.063207 -0.362245 -0.00244968 0.0112853 8.56797
1.385 -0.00449537 0.0631684 -0.361986 -0.00243562 0.0112731 8.56927
1.386 -0.00431863 0.0631299 -0.361721 -0.00242166 0.0112608 8.57048
1.387 -0.00414369 0.0630883 -0.361459 -0.0024078 0.0112484 8.57158
1.388 -0.00396646 0.0630449 -0.361196 -0.00239405 0.0112359 8.5726
1.389 -0.00379031 0.0629992 -0.360935 -0.00238041 0.0112233 8.57354
1.39 -0.00361763 0.0629522 -0.360674 -0.00236687 0.0112105 8.57441
1.391 -0.00344628 0.0629021 -0.360415 -0.00235346 0.0111977 8.5752
1.392 -0.00327468 0.0628518 -0.360153 -0.00234015 0.0111848 8.57594
1.393 -0.00310714 0.0628002 -0.35989 -0.00232696 0.0111719 8.57661
1.394 -0.00293986 0.0627483 -0.359629 -0.00231389 0.0111588 8.57723
1.395 -0.00277303 0.0626941 -0.359366 -0.00230094 0.0111456 8.5778
1.396 -0.00260637 0.0626386 -0.359103 -0.0022881 0.0111324 8.57833
1.397 -0.00244289 0.0625815 -0.358841 -0.00227537 0.011119 8.57881
1.398 -0.00228274 0.0625217 -0.358577 -0.00226217 0.0111058 8.58021
1.399 -0.00212214 0.0624645 -0.358314 -0.00224908 0.0110924 8.58149
1.4 -0.00196702 0.0624013 -0.358049 -0.00223612 0.0110788 8.58267
1.401 -0.00181664 0.0623349 -0.357784 -0.00222328 0.0110652 8.58375
1.402 -0.00166987 0.0622693 -0.35752 -0.00221055 0.0110515 8.58474
1.403 -0.00152561 0.062201 -0.357256 -0.00219793 0.0110377 8.58564
1.404 -0.00138432 0.0621332 -0.356992 -0.00218542 0.0110239 8.58647
1.405 -0.00124902 0.0620658 -0.356728 -0.00217302 0.01101 8.58723
1.406 -0.00111477 0.0619953 -0.356463 -0.00216072 0.010996 8.58793
1.407 -0.000982682 0.0619251 -0.356198 -0.00214852 0.010982 8.58857
1.408 -0.000853463 0.0618532 -0.355933 -0.0021364 0.010968 8.58915
1.409 -0.000729044 0.0617801 -0.355668 -0.00212438 0.0109539 8.58968
1.41 -0.000604636 0.0617061 -0.355403 -0.00211244 0.0109399 8.59017
1.411 -0.000481859 0.0616303 -0.355138 -0.00210059 0.0109258 8.59061
1.412 -0.000362006 0.0615564 -0.354873 -0.00208881 0.0109117 8.59101
1.413 -0.000245172 0.0614814 -0.354608 -0.0020771 0.0108977 8.59138
1.414 -0.000129927 0.0614064 -0.354343 -0.00206546 0.0108836 8.59172
1.415 -1.38875e-05 0.0613275 -0.354078 -0.00205389 0.0108696 8.59203
1.416 9.91987e-05 0.0612495 -0.353813 -0.00204238 0.0108555 8.5923
1.417 0.000212233 0.0611674 -0.353548 -0.00203042 0.0108422 8.5942
1.418 0.000320547 0.0610876 -0.353282 -0.00201853 0.0108288 8.59595
1.419 0.000428765 0.061002 -0.353016 -0.0020067 0.0108154 8.59756
1.42 0.000533071 0.0609115 -0.35275 -0.00199495 0.0108019 8.59905
1.421 0.000636138 0.0608185 -0.352484 -0.00198326 0.0107884 8.60041
1.422 0.000736859 0.0607249 -0.352216 -0.00197163 0.0107749 8.60167
1.423 0.000839968 0.0606271 -0.351949 -0.00196007 0.0107614 8.60283
1.424 0.000940492 0.0605293 -0.351682 -0.00194858 0.0107478 8.60389
1.425 0.00103841 0.0604312 -0.351415 -0.00193715 0.0107343 8.60487
1.426 0.00113638 0.0603283 -0.351149 -0.00192579 0.0107207 8.60578
1.427 0.0012345 0.0602226 -0.350882 -0.0019145 0.010707 8.60661
1.428 0.00133195 0.0601148 -0.350614 -0.00190328 0.0106934 8.60737
1.429 0.00142802 0.060006 -0.350345 -0.00189213 0.0106797 8.60807
1.43 0.00152289 0.0598944 -0.350077 -0.00188106 0.010666 8.60872
1.431 0.00161815 0.0597833 -0.349808 -0.00187007 0.0106523 8.60931
1.432 0.00171271 0.059668 -0.349542 -0.00185916 0.0106386 8.60986
1.433 0.00180997 0.0595505 -0.349274 -0.00184834 0.0106248 8.61036
1.434 0.00190545 0.0594315 -0.349006 -0.00183761 0.010611 8.61082
1.435 0.00200127 0.0593102 -0.348737 -0.00182661 0.0105982 8.6132
1.436 0.00209875 0.0591833 -0.348468 -0.00181604 0.0105865 8.6165
1.437 0.0021947 0.059056 -0.348198 -0.00180557 0.0105745 8.61955
1.438 0.0022889 0.0589258 -0.347928 -0.00179518 0.0105624 8.62236
1.439 0.00238515 0.0587936 -0.34766 -0.00178489 0.0105501 8.62496
1.44 0.0024823 0.0586591 -0.347391 -0.0017747 0.0105377 8.62736
1.441 0.00257778 0.0585239 -0.347123 -0.00176461 0.010525 8.62958
1.442 0.00267383 0.0583881 -0.346853 -0.00175463 0.0105123 8.63162
1.443 0.0027724 0.0582491 -0.346582 -0.00174475 0.0104994 8.63351
1.444 0.0028666 0.0581063 -0.346311 -0.00173498 0.0104864 8.63525
1.445 0.00295926 0.0579668 -0.346041 -0.00172532 0.0104732 8.63686
1.446 0.0030548 0.0578237 -0.345771 -0.00171578 0.01046 8.63835
1.447 0.00315064 0.0576798 -0.3455 -0.00170634 0.0104466 8.63972
1.448 0.0032428 0.0575383 -0.345229 -0.00169702 0.0104331 8.64098
1.449 0.00333409 0.0573964 -0.344959 -0.0016878 0.0104196 8.64215
1.45 0.00342562 0.0572515 -0.344687 -0.00167869 0.010406 8.64323
1.451 0.0035171 0.0571117 -0.344415 -0.00166969 0.0103923 8.64423
1.452 0.00360785 0.0569691 -0.344145 -0.00166079 0.0103785 8.64515
1.453 0.00369964 0.0568297 -0.343874 -0.00165199 0.0103647 8.646
1.454 0.0037845 0.0566882 -0.343602 -0.00164279 0.0103508 8.64765
1.455 0.00387061 0.0565436 -0.343331 -0.00163396 0.0103378 8.65022
1.456 0.00395468 0.0563976 -0.343058 -0.00162521 0.0103247 8.65258
1.457 0.00403842 0.0562536 -0.342787 -0.00161655 0.0103115 8.65477
1.458 0.00411789 0.0561068 -0.342517 -0.00160797 0.0102982 8.65679
1.459 0.00420007 0.0559604 -0.342245 -0.00159947 0.0102849 8.65866
1.46 0.00427996 0.0558125 -0.341973 -0.00159104 0.0102714 8.66038
1.461 0.00435769 0.0556644 -0.341702 -0.00158267 0.010258 8.66197
1.462 0.00443461 0.0555163 -0.34143 -0.00157437 0.0102444 8.66343
1.463 0.00451139 0.05537 -0.341158 -0.00156613 0.0102308 8.66479
1.464 0.00458831 0.0552225 -0.340886 -0.00155794 0.0102172 8.66604
1.465 0.00466224 0.0550712 -0.340614 -0.00154981 0.0102036 8.66719
1.466 0.00473811 0.0549208 -0.340342 -0.00154172 0.0101899 8.66826
1.467 0.00481047 0.0547698 -0.340067 -0.00153368 0.0101763 8.66924
1.468 0.00488518 0.0546181 -0.339795 -0.00152569 0.0101626 8.67015
1.469 0.00496056 0.0544674 -0.339522 -0.00151774 0.0101489 8.67099
1.47 0.00503167 0.0543157 -0.339249 -0.00150984 0.0101352 8.67176
1.471 0.00510404 0.0541624 -0.338977 -0.00150198 0.0101215 8.67248
1.472 0.00517842 0.0540082 -0.338705 -0.00149416 0.0101078 8.67314
1.473 0.00524952 0.0538518 -0.338431 -0.00148593 0.010094 8.67457
1.474 0.00532391 0.0536934 -0.338156 -0.001478 0.0100812 8.67697
1.475 0.00539475 0.0535337 -0.337883 -0.00147012 0.0100684 8.67918
1.476 0.00546781 0.0533704 -0.337609 -0.00146229 0.0100554 8.68122
1.477 0.00554126 0.053204 -0.337336 -0.00145451 0.0100424 8.68311
1.478 0.00561266 0.0530376 -0.337063 -0.00144678 0.0100293 8.68485
1.479 0.00568329 0.0528688 -0.336791 -0.00143911 0.0100162 8.68646
1.48 0.00575578 0.0526989 -0.336517 -0.0014315 0.010003 8.68794
1.481 0.0058298 0.0525267 -0.336245 -0.00142395 0.00998968 8.68931
1.482 0.00590222 0.0523535 -0.335971 -0.00141648 0.00997635 8.69057
1.483 0.00597375 0.0521784 -0.335696 -0.00140908 0.00996296 8.69174
1.484 0.00604697 0.0520015 -0.335421 -0.00140175 0.00994952 8.69282
1.485 0.00611723 0.0518251 -0.335145 -0.00139451 0.00993603 8.69381
1.486 0.00618918 0.051647 -0.334871 -0.00138736 0.00992249 8.69473
1.487 0.00626028 0.0514663 -0.334596 -0.0013803 0.0099089 8.69558
1.488 0.00633112 0.0512832 -0.334325 -0.00137333 0.00989526 8.69636
1.489 0.00640369 0.0511013 -0.334049 -0.00136646 0.00988158 8.69708
1.49 0.00647463 0.0509191 -0.333772 -0.00135969 0.00986785 8.69775
1.491 0.00654485 0.0507358 -0.333495 -0.00135303 0.00985408 8.69837
1.492 0.00661665 0.0505507 -0.333222 -0.00134639 0.00984026 8.69909
1.493 0.00668546 0.0503622 -0.332947 -0.0013398 0.00982729 8.70151
1.494 0.00675318 0.0501738 -0.33267 -0.00133332 0.00981421 8.70374
1.495 0.00682125 0.0499858 -0.332396 -0.00132694 0.00980101 8.7058
1.496 0.00688631 0.0497971 -0.332122 -0.00132067 0.00978772 8.7077
1.497 0.00694938 0.0496077 -0.331846 -0.00131451 0.00977434 8.70945
1.498 0.00701303 0.0494171 -0.331569 -0.00130845 0.00976088 8.71107
1.499 0.00707377 0.0492275 -0.331292 -0.00130249 0.00974735 8.71256
1.5 0.00713533 0.0490391 -0.331015 -0.00129664 0.00973374 8.71394
1.501 0.00719996 0.0488493 -0.33074 -0.00129088 0.00972009 8.71522
1.502 0.00725961 0.0486585 -0.330463 -0.00128522 0.00970637 8.7164
1.503 0.00731799 0.0484686 -0.330189 -0.00127965 0.00969262 8.71748
1.504 0.0073759 0.0482816 -0.329913 -0.00127416 0.00967882 8.71848
1.505 0.00743411 0.0480918 -0.329638 -0.00126877 0.009665 8.71941
1.506 0.00748908 0.0479033 -0.329364 -0.00126345 0.00965114 8.72026
1.507 0.0075444 0.0477132 -0.329088 -0.0012582 0.00963726 8.72105
1.508 0.00759813 0.0475265 -0.328813 -0.00125303 0.00962337 8.72178
1.509 0.00765213 0.0473386 -0.328538 -0.00124792 0.00960947 8.72245
1.51 0.00770429 0.0471524 -0.328265 -0.00124288 0.00959555 8.72307
1.511 0.00775699 0.0469659 -0.327988 -0.00123789 0.00958163 8.72365
1.512 0.00780854 0.0467799 -0.327711 -0.00123295 0.00956771 8.72418
1.513 0.00785732 0.0465949 -0.327434 -0.00122801 0.00955467 8.72668
1.514 0.00790783 0.0464074 -0.327159 -0.0012231 0.00954156 8.72898
1.515 0.00795465 0.0462198 -0.326882 -0.00121824 0.00952837 8.73111
1.516 0.00800203 0.0460324 -0.326606 -0.00121341 0.00951513 8.73308
1.517 0.00804771 0.0458448 -0.326328 -0.00120861 0.00950183 8.7349
1.518 0.00809424 0.0456564 -0.326052 -0.00120385 0.00948849 8.73658
1.519 0.00814099 0.045468 -0.325775 -0.00119912 0.0094751 8.73812
1.52 0.00818444 0.0452775 -0.325496 -0.00119442 0.00946167 8.73955
1.521 0.00822894 0.0450846 -0.325219 -0.00118975 0.00944821 8.74087
1.522 0.00827156 0.0448938 -0.324939 -0.00118511 0.00943472 8.74209
1.523 0.00831545 0.044701 -0.324662 -0.0011805 0.00942121 8.74321
1.524 0.00836157 0.0445086 -0.324387 -0.00117593 0.00940767 8.74425
1.525 0.0084038 0.0443136 -0.324111 -0.00117139 0.0093941 8.74521
1.526 0.00844798 0.0441165 -0.323833 -0.00116689 0.00938052 8.7461
1.527 0.00849192 0.0439189 -0.323556 -0.00116243 0.00936691 8.74691
1.528 0.00853493 0.0437184 -0.323279 -0.00115801 0.00935328 8.74767
1.529 0.0085783 0.0435176 -0.323 -0.00115365 0.00933964 8.74836
1.53 0.00862197 0.0433174 -0.322722 -0.00114933 0.00932598 8.74901
1.531 0.00866671 0.0431145 -0.322446 -0.00114506 0.00931231 8.7496
1.532 0.00870566 0.0429093 -0.322168 -0.00114055 0.00929844 8.75111
1.533 0.00874618 0.0427037 -0.32189 -0.0011364 0.00928561 8.75356
1.534 0.00878419 0.0424968 -0.321615 -0.00113231 0.00927269 8.75583
1.535 0.00882309 0.0422894 -0.321339 -0.00112828 0.00925968 8.75792
1.536 0.00886068 0.0420793 -0.321061 -0.00112432 0.00924659 8.75985
1.537 0.00889661 0.0418699 -0.320783 -0.00112043 0.00923342 8.76163
1.538 0.00893529 0.0416564 -0.320507 -0.00111662 0.00922019 8.76327
1.539 0.00897127 0.041444 -0.320229 -0.00111289 0.0092069 8.76479
1.54 0.00900928 0.0412337 -0.31995 -0.00110924 0.00919355 8.76619
1.541 0.00904561 0.0410218 -0.319673 -0.00110567 0.00918014 8.76749
1.542 0.00907991 0.0408085 -0.319394 -0.00110219 0.00916669 8.76868
1.543 0.00911101 0.0405964 -0.319114 -0.0010988 0.0091532 8.76979
1.544 0.00914483 0.0403828 -0.318835 -0.00109549 0.00913967 8.7708
1.545 0.00917768 0.0401686 -0.318556 -0.00109228 0.0091261 8.77174
1.546 0.00921087 0.0399568 -0.318278 -0.00108915 0.00911251 8.77261
1.547 0.00924408 0.0397446 -0.318001 -0.00108611 0.00909889 8.77341
1.548 0.00927504 0.0395298 -0.317723 -0.00108316 0.00908524 8.77415
1.549 0.00930838 0.0393178 -0.317444 -0.00108029 0.00907158 8.77483
1.55 0.00933924 0.0391066 -0.317163 -0.0010775 0.0090579 8.77547
1.551 0.00936667 0.0388936 -0.316886 -0.00107463 0.00904407 8.77701
1.552 0.00939247 0.0386841 -0.316609 -0.00107209 0.00903116 8.77939
1.553 0.00941866 0.0384728 -0.316331 -0.00106961 0.00901817 8.78159
1.554 0.00944527 0.0382624 -0.316051 -0.0010672 0.00900512 8.78363
1.555 0.00946988 0.0380519 -0.315772 -0.00106485 0.008992 8.7855
1.556 0.00949714 0.0378417 -0.315492 -0.00106255 0.00897882 8.78723
1.557 0.0095202 0.0376343 -0.315215 -0.0010603 0.0089656 8.78883
1.558 0.00954167 0.0374269 -0.314935 -0.0010581 0.00895233 8.79031
1.559 0.00956489 0.0372182 -0.314654 -0.00105595 0.00893903 8.79167
1.56 0.00958901 0.0370091 -0.314375 -0.00105384 0.00892569 8.79293
1.561 0.00961129 0.0368014 -0.314094 -0.00105176 0.00891232 8.79409
1.562 0.00963327 0.0365947 -0.313816 -0.00104973 0.00889893 8.79516
1.563 0.00965597 0.0363893 -0.313538 -0.00104772 0.00888552 8.79615
1.564 0.0096754 0.0361833 -0.313256 -0.00104575 0.00887208 8.79706
1.565 0.00969446 0.0359763 -0.312977 -0.0010438 0.00885863 8.7979
1.566 0.00971403 0.0357716 -0.312698 -0.00104187 0.00884517 8.79868
1.567 0.00973369 0.0355666 -0.312419 -0.00103998 0.00883169 8.7994
1.568 0.00975371 0.0353614 -0.312138 -0.0010381 0.0088182 8.80007
1.569 0.00977374 0.0351554 -0.31186 -0.00103624 0.00880471 8.80068
1.57 0.00979251 0.0349489 -0.311581 -0.00103429 0.00879111 8.80224
1.571 0.00980897 0.0347424 -0.3113 -0.00103261 0.00877839 8.8046
1.572 0.00982607 0.0345355 -0.311021 -0.00103094 0.0087656 8.80678
1.573 0.00984354 0.0343293 -0.310739 -0.00102928 0.00875274 8.80879
1.574 0.00986086 0.0341196 -0.310459 -0.00102763 0.00873981 8.81065
1.575 0.00987746 0.0339097 -0.310179 -0.00102601 0.00872683 8.81237
1.576 0.00989165 0.0336998 -0.309899 -0.0010244 0.00871379 8.81395
1.577 0.00990869 0.0334904 -0.309619 -0.00102282 0.00870071 8.81542
1.578 0.00992332 0.0332813 -0.30934 -0.00102127 0.00868758 8.81677
1.579 0.00993987 0.0330688 -0.30906 -0.00101974 0.00867441 8.81801
1.58 0.00995365 0.0328552 -0.308782 -0.00101825 0.0086612 8.81917
1.581 0.00996922 0.0326407 -0.308498 -0.0010168 0.00864797 8.82023
1.582 0.00998366 0.0324279 -0.308218 -0.00101539 0.0086347 8.82121
1.583 0.00999847 0.0322127 -0.307937 -0.00101402 0.00862141 8.82211
1.584 0.0100112 0.0319979 -0.307657 -0.0010127 0.00860809 8.82295
1.585 0.0100225 0.0317834 -0.307377 -0.00101143 0.00859476 8.82372
1.586 0.0100365 0.0315678 -0.307097 -0.00101022 0.00858141 8.82443
1.587 0.0100489 0.0313506 -0.306817 -0.00100906 0.00856804 8.82509
1.588 0.0100596 0.0311318 -0.306537 -0.00100796 0.00855466 8.8257
1.589 0.0100672 0.0309153 -0.306259 -0.00100688 0.00854127 8.82734
1.59 0.0100734 0.0306964 -0.305981 -0.00100609 0.00852865 8.82969
1.591 0.0100844 0.0304773 -0.305699 -0.00100535 0.00851596 8.83185
1.592 0.0100913 0.0302597 -0.305415 -0.00100466 0.0085032 8.83385
1.593 0.0101005 0.0300417 -0.305135 -0.00100403 0.00849039 8.8357
1.594 0.0101053 0.0298243 -0.304855 -0.00100346 0.00847752 8.83741
1.595 0.0101113 0.0296073 -0.304576 -0.00100294 0.00846461 8.83898
1.596 0.0101186 0.0293935 -0.304298 -0.00100249 0.00845166 8.84043
1.597 0.0101256 0.0291766 -0.304017 -0.00100209 0.00843868 8.84177
1.598 0.0101311 0.0289615 -0.303737 -0.00100175 0.00842566 8.84301
1.599 0.010136 0.0287467 -0.303457 -0.00100147 0.00841262 8.84416
1.6 0.0101415 0.0285323 -0.303175 -0.00100124 0.00839956 8.84521
1.601 0.0101462 0.028319 -0.302895 -0.00100106 0.00838647 8.84619
1.602 0.0101526 0.0281041 -0.302615 -0.00100094 0.00837337 8.84709
1.603 0.0101589 0.0278917 -0.302336 -0.00100086 0.00836026 8.84792
1.604 0.0101648 0.0276802 -0.302057 -0.00100083 0.00834713 8.84868
1.605 0.0101708 0.027469 -0.301778 -0.00100084 0.008334 8.84939
1.606 0.0101762 0.0272605 -0.301499 -0.0010009 0.00832085 8.85004
1.607 0.0101818 0.0270495 -0.301219 -0.00100099 0.0083077 8.85065
1.608 0.0101848 0.0268412 -0.300938 -0.00100112 0.00829453 8.85149
1.609 0.0101884 0.0266318 -0.300661 -0.00100153 0.00828214 8.85389
1.61 0.0101916 0.0264226 -0.300378 -0.00100195 0.00826969 8.8561
1.611 0.010194 0.0262147 -0.300097 -0.00100239 0.00825717 8.85814
1.612 0.0101979 0.0260071 -0.299814 -0.00100284 0.0082446 8.86003
1.613 0.0102009 0.025801 -0.299535 -0.0010033 0.00823198 8.86177
1.614 0.0102008 0.0255952 -0.299253 -0.00100377 0.0082193 8.86338
1.615 0.0102036 0.0253914 -0.298972 -0.00100425 0.00820658 8.86487
1.616 0.0102047 0.025186 -0.298695 -0.00100473 0.00819382 8.86624
1.617 0.0102044 0.0249822 -0.298413 -0.00100523 0.00818103 8.8675
1.618 0.0102057 0.0247785 -0.298133 -0.00100573 0.0081682 8.86867
1.619 0.0102079 0.0245743 -0.297851 -0.00100623 0.00815534 8.86975
1.62 0.0102103 0.0243696 -0.297569 -0.00100675 0.00814245 8.87075
1.621 0.010211 0.0241682 -0.297288 -0.00100727 0.00812953 8.87167
1.622 0.0102118 0.0239644 -0.297007 -0.00100781 0.0081166 8.87251
1.623 0.0102136 0.0237586 -0.296729 -0.00100835 0.00810364 8.8733
1.624 0.0102144 0.023553 -0.29645 -0.0010089 0.00809066 8.87402
1.625 0.0102131 0.0233492 -0.296171 -0.00100947 0.00807767 8.87469
1.626 0.0102131 0.0231439 -0.29589 -0.00101006 0.00806466 8.87531
1.627 0.0102095 0.0229382 -0.295608 -0.00101071 0.00805163 8.87695
1.628 0.0102077 0.022735 -0.295329 -0.0010116 0.00803934 8.87929
1.629 0.0102016 0.0225286 -0.295048 -0.0010125 0.00802698 8.88146
1.63 0.0101987 0.0223214 -0.294767 -0.00101341 0.00801456 8.88345
1.631 0.0101943 0.0221158 -0.294486 -0.00101434 0.00800208 8.88529
1.632 0.0101891 0.021911 -0.294204 -0.00101528 0.00798955 8.887
1.633 0.0101842 0.0217056 -0.293923 -0.00101624 0.00797698 8.88857
1.634 0.0101788 0.0215001 -0.293642 -0.00101722 0.00796437 8.89002
1.635 0.0101747 0.0212966 -0.293363 -0.00101823 0.00795172 8.89136
1.636 0.0101701 0.021089 -0.293082 -0.00101927 0.00793904 8.89259
1.637 0.0101628 0.020883 -0.292801 -0.00102034 0.00792634 8.89373
1.638 0.0101565 0.0206777 -0.292521 -0.00102145 0.00791361 8.89479
1.639 0.01015 0.0204711 -0.292239 -0.00102259 0.00790087 8.89576
1.64 0.0101446 0.0202653 -0.29196 -0.00102377 0.00788812 8.89666
1.641 0.0101396 0.0200613 -0.29168 -0.00102498 0.00787535 8.89748
1.642 0.0101352 0.0198567 -0.291401 -0.00102624 0.00786257 8.89825
1.643 0.0101278 0.0196517 -0.29112 -0.00102753 0.00784979 8.89896
1.644 0.0101189 0.0194458 -0.290839 -0.00102887 0.00783701 8.89961
1.645 0.0101121 0.0192404 -0.290559 -0.00103024 0.00782422 8.90021
1.646 0.0101022 0.0190345 -0.290279 -0.00103182 0.0078116 8.90201
1.647 0.0100938 0.0188324 -0.289997 -0.0010336 0.00779954 8.90432
1.648 0.0100842 0.0186308 -0.289716 -0.0010354 0.00778742 8.90644
1.649 0.0100774 0.018431 -0.289437 -0.00103722 0.00777525 8.90841
1.65 0.0100697 0.0182292 -0.289156 -0.00103906 0.00776303 8.91022
1.651 0.0100608 0.0180303 -0.288877 -0.00104093 0.00775077 8.9119
1.652 0.0100522 0.0178332 -0.288597 -0.00104281 0.00773848 8.91344
1.656 0.0100191 0.0170484 -0.287471 -0.00105052 0.00768899 8.91853
1.657 0.0100126 0.0168555 -0.28719 -0.00105248 0.00767656 8.91956
1.658 0.0100056 0.0166623 -0.286909 -0.00105446 0.00766411 8.92052
1.659 0.0099947 0.0164708 -0.286629 -0.00105645 0.00765164 8.9214
1.66 0.00998492 0.0162774 -0.286349 -0.00105845 0.00763915 8.92222
1.661 0.00997509 0.0160855 -0.286068 -0.00106046 0.00762665 8.92297
1.662 0.00996504 0.0158945 -0.285788 -0.00106247 0.00761414 8.92367
1.663 0.00995528 0.0157058 -0.285508 -0.00106449 0.00760161 8.92431
1.664 0.00994849 0.0155134 -0.285228 -0.00106652 0.00758907 8.9249
1.665 0.00993771 0.0153241 -0.284949 -0.00106855 0.00757651 8.92545
1.666 0.00992875 0.0151341 -0.284669 -0.00107059 0.00756395 8.92595
1.668 0.00990628 0.0147522 -0.284108 -0.00107487 0.00753886 8.92817
1.669 0.00989576 0.0145634 -0.283828 -0.00107733 0.00752709 8.93063
1.67 0.00988491 0.0143748 -0.283546 -0.00107979 0.00751525 8.93291
1.671 0.00987547 0.0141886 -0.283266 -0.00108222 0.00750335 8.93501
1.672 0.00986195 0.0140012 -0.282987 -0.00108464 0.00749138 8.93695
1.673 0.00985134 0.0138163 -0.282707 -0.00108705 0.00747936 8.93874
1.674 0.00983887 0.0136287 -0.282428 -0.00108945 0.0074673 8.9404
1.675 0.00982487 0.0134399 -0.282146 -0.00109185 0.00745518 8.94193
1.676 0.00981228 0.0132554 -0.281865 -0.00109424 0.00744303 8.94334
1.677 0.00980005 0.0130688 -0.281587 -0.00109662 0.00743085 8.94464
1.678 0.00978451 0.0128851 -0.281308 -0.00109901 0.00741863 8.94584
1.679 0.00977014 0.012701 -0.281028 -0.0011014 0.00740639 8.94695
1.68 0.00975601 0.0125177 -0.280749 -0.00110379 0.00739412 8.94797
1.681 0.00974179 0.0123339 -0.280469 -0.00110618 0.00738184 8.94892
1.682 0.00972665 0.0121485 -0.28019 -0.00110859 0.00736954 8.94979
1.683 0.00971182 0.0119644 -0.279911 -0.001111 0.00735722 8.9506
1.684 0.0096973 0.0117811 -0.27963 -0.00111343 0.0073449 8.95134
1.685 0.0096829 0.0115977 -0.279349 -0.00111587 0.00733257 8.95203
1.686 0.00966752 0.0114125 -0.279068 -0.00111832 0.00732023 8.95266
1.687 0.00965245 0.0112306 -0.27879 -0.00112079 0.0073079 8.95324
1.688 0.00963837 0.0110495 -0.27851 -0.00112352 0.00729569 8.95507
1.689 0.00962329 0.010866 -0.278231 -0.00112644 0.00728408 8.95743
1.69 0.00960935 0.0106837 -0.27795 -0.00112936 0.0072724 8.95961
1.691 0.00959312 0.0105033 -0.277672 -0.00113228 0.00726068 8.96162
1.692 0.00957594 0.0103223 -0.27739 -0.00113521 0.00724891 8.96348
1.693 0.00955996 0.0101436 -0.27711 -0.00113813 0.00723711 8.9652
1.694 0.00954194 0.00996824 -0.276829 -0.00114107 0.00722527 8.96678
1.695 0.0095257 0.00979092 -0.276552 -0.00114401 0.0072134 8.96824
1.696 0.00951366 0.00961403 -0.276274 -0.00114696 0.0072015 8.96959
1.697 0.0094958 0.00943545 -0.275994 -0.00114991 0.00718958 8.97084
1.698 0.00947904 0.0092601 -0.275716 -0.00115287 0.00717763 8.97199
1.699 0.00946265 0.00908725 -0.275437 -0.00115584 0.00716567 8.97305
1.7 0.00944855 0.008914 -0.275158 -0.00115882 0.00715369 8.97403
1.701 0.0094331 0.00874059 -0.274878 -0.00116181 0.0071417 8.97493
1.702 0.00941796 0.00856802 -0.274599 -0.0011648 0.00712969 8.97577
1.703 0.00940142 0.00839525 -0.27432 -0.0011678 0.00711768 8.97654
1.704 0.00938745 0.00822184 -0.274041 -0.0011708 0.00710565 8.97725
1.705 0.00937363 0.00805182 -0.273762 -0.00117381 0.00709362 8.97791
1.706 0.00935769 0.00788232 -0.273483 -0.00117683 0.00708157 8.97852
1.707 0.00934036 0.00771223 -0.273205 -0.00118008 0.00706959 8.98023
1.708 0.00932527 0.00754273 -0.272925 -0.00118353 0.0070582 8.9825
1.709 0.00930983 0.00737654 -0.272647 -0.00118696 0.00704676 8.98459
1.71 0.00929507 0.00721116 -0.272367 -0.00119037 0.00703526 8.98653
1.711 0.00928045 0.00704602 -0.272088 -0.00119376 0.00702371 8.98832
1.712 0.00926619 0.00688163 -0.271808 -0.00119714 0.00701212 8.98997
1.713 0.00924917 0.00671709 -0.271529 -0.00120049 0.00700048 8.99149
1.714 0.00923407 0.00655555 -0.271249 -0.00120383 0.00698881 8.9929
1.715 0.0092177 0.00639516 -0.27097 -0.00120715 0.00697711 8.9942
1.716 0.00920203 0.00623563 -0.270689 -0.00121046 0.00696537 8.99539
1.717 0.00918648 0.00607771 -0.270409 -0.00121375 0.00695361 8.9965
1.718 0.00917003 0.00591606 -0.270129 -0.00121703 0.00694183 8.99752
1.719 0.00915292 0.00575588 -0.269851 -0.0012203 0.00693002 8.99846
1.72 0.00913947 0.00559757 -0.26957 -0.00122355 0.0069182 8.99933
1.721 0.00912277 0.00543725 -0.269293 -0.00122679 0.00690636 9.00014
1.722 0.00910507 0.00527801 -0.269014 -0.00123002 0.0068945 9.00088
1.723 0.00908997 0.00511832 -0.268735 -0.00123323 0.00688264 9.00157
1.724 0.00907378 0.00496033 -0.268455 -0.00123644 0.00687076 9.0022
1.725 0.00905735 0.00480135 -0.268179 -0.00123965 0.00685888 9.00278
1.726 0.00904098 0.00464415 -0.2679 -0.0012431 0.00684711 9.00452
1.727 0.00902285 0.00448821 -0.267619 -0.00124673 0.00683586 9.00674
1.728 0.00900524 0.00433216 -0.267339 -0.00125032 0.00682456 9.0088
1.729 0.00898786 0.00417738 -0.267061 -0.0012539 0.00681321 9.0107
1.73 0.00897238 0.00402336 -0.266782 -0.00125745 0.00680182 9.01245
1.731 0.00895503 0.00387178 -0.266504 -0.00126099 0.00679039 9.01407
1.732 0.00893617 0.00371971 -0.266227 -0.0012645 0.00677893 9.01556
1.733 0.00891772 0.00356662 -0.265949 -0.00126801 0.00676744 9.01694
1.734 0.00890181 0.00341589 -0.26567 -0.0012715 0.00675593 9.01821
1.735 0.00888412 0.00326593 -0.265395 -0.00127498 0.00674439 9.01939
1.736 0.00886799 0.00311356 -0.265118 -0.00127846 0.00673284 9.02047
1.737 0.00885188 0.0029631 -0.264842 -0.00128193 0.00672127 9.02147
1.738 0.00883218 0.00281471 -0.264563 -0.00128539 0.00670968 9.0224
1.739 0.00881317 0.00266523 -0.264287 -0.00128885 0.00669809 9.02325
1.74 0.00879402 0.00251652 -0.264009 -0.00129231 0.00668649 9.02404
1.741 0.00877884 0.0023676 -0.263732 -0.00129576 0.00667487 9.02476
1.742 0.00876265 0.00221804 -0.263455 -0.00129922 0.00666325 9.02544
1.743 0.00874579 0.00206887 -0.263177 -0.00130267 0.00665163 9.02606
1.744 0.00872878 0.00192195 -0.2629 -0.00130613 0.00664 9.02663
1.745 0.00871 0.00177432 -0.262622 -0.00130986 0.00662846 9.02832
1.746 0.00869294 0.00162862 -0.262345 -0.00131377 0.00661745 9.03052
1.747 0.00867442 0.00148594 -0.262066 -0.00131767 0.00660639 9.03255
1.748 0.00865948 0.00134559 -0.261792 -0.00132154 0.00659528 9.03442
1.749 0.00864373 0.00120354 -0.261515 -0.0013254 0.00658413 9.03615
1.75 0.00862528 0.0010619 -0.261238 -0.00132924 0.00657294 9.03775
1.751 0.00860897 0.00092358 -0.260963 -0.00133306 0.00656172 9.03922
1.752 0.00859187 0.00078804 -0.260687 -0.00133686 0.00655047 9.04058
1.753 0.00857444 0.00064907 -0.260408 -0.00134065 0.00653919 9.04184
1.754 0.00855705 0.000513603 -0.26013 -0.00134443 0.00652789 9.043
1.755 0.00854074 0.000377497 -0.259855 -0.00134819 0.00651656 9.04407
1.756 0.00852421 0.000242149 -0.259579 -0.00135194 0.00650521 9.04506
1.757 0.00850764 0.000106923 -0.259304 -0.00135567 0.00649384 9.04597
1.758 0.00849116 -2.775e-05 -0.259028 -0.00135938 0.00648246 9.04681
1.759 0.00847523 -0.000159357 -0.258751 -0.00136308 0.00647107 9.04759
1.76 0.00845914 -0.00029314 -0.258474 -0.00136677 0.00645966 9.04831
1.761 0.00844406 -0.000425601 -0.258197 -0.00137044 0.00644824 9.04897
1.762 0.00842641 -0.000557295 -0.257922 -0.0013741 0.00643681 9.04958
1.763 0.00841089 -0.000688345 -0.257645 -0.00137774 0.00642538 9.05015
1.764 0.00839659 -0.000818247 -0.257368 -0.00138166 0.00641407 9.05188
1.765 0.00837743 -0.000946045 -0.257094 -0.00138574 0.00640322 9.05404
1.766 0.00835905 -0.00107438 -0.256817 -0.00138977 0.00639233 9.05605
1.767 0.00833922 -0.00119978 -0.25654 -0.00139377 0.00638139 9.05789
1.768 0.00832333 -0.00132685 -0.256264 -0.00139774 0.00637042 9.0596
1.769 0.00830511 -0.00145144 -0.255989 -0.00140167 0.00635941 9.06117
1.77 0.0082919 -0.00157441 -0.255713 -0.00140556 0.00634837 9.06263
1.771 0.00827652 -0.00169631 -0.255438 -0.00140943 0.0063373 9.06397
1.772 0.00826181 -0.00181944 -0.255163 -0.00141327 0.00632622 9.06521
1.773 0.0082465 -0.00194133 -0.254889 -0.00141708 0.00631511 9.06635
1.774 0.00822988 -0.00206427 -0.254615 -0.00142086 0.00630398 9.06741
1.775 0.00821444 -0.00218485 -0.254339 -0.00142461 0.00629284 9.06838
1.776 0.00819751 -0.00230582 -0.254064 -0.00142834 0.00628169 9.06928
1.777 0.00818033 -0.00242612 -0.253789 -0.00143205 0.00627052 9.07011
1.778 0.00816472 -0.00254629 -0.253515 -0.00143573 0.00625935 9.07088
1.779 0.00814944 -0.00266719 -0.253238 -0.0014394 0.00624817 9.07159
1.78 0.00813444 -0.00278604 -0.252963 -0.00144305 0.00623699 9.07224
1.781 0.00811688 -0.00290586 -0.252688 -0.00144668 0.0062258 9.07284
1.782 0.00809933 -0.00302388 -0.252412 -0.00145029 0.00621461 9.0734
1.783 0.00808275 -0.0031432 -0.252134 -0.00145419 0.00620355 9.07512
1.784 0.00806882 -0.00326108 -0.25186 -0.00145825 0.00619293 9.07726
1.785 0.00805128 -0.00337798 -0.251583 -0.00146227 0.00618227 9.07923
1.786 0.00803658 -0.00349234 -0.251309 -0.00146626 0.00617157 9.08105
1.787 0.00802064 -0.00360663 -0.251035 -0.00147021 0.00616083 9.08274
1.788 0.00800458 -0.00372084 -0.250759 -0.00147415 0.00615006 9.08429
1.789 0.00798919 -0.00383413 -0.250487 -0.00147805 0.00613925 9.08572
1.79 0.00797317 -0.00394613 -0.250215 -0.00148193 0.00612842 9.08704
1.791 0.00795855 -0.00405604 -0.249939 -0.0014858 0.00611757 9.08827
1.792 0.00794422 -0.00416623 -0.249668 -0.00148964 0.00610669 9.08939
1.793 0.00793128 -0.00427577 -0.249393 -0.00149346 0.00609579 9.09044
1.794 0.00791793 -0.00438363 -0.249118 -0.00149727 0.00608487 9.0914
1.795 0.00790345 -0.00449085 -0.248846 -0.00150106 0.00607394 9.09228
1.796 0.00788663 -0.0046004 -0.248573 -0.00150484 0.00606299 9.0931
1.797 0.00787418 -0.00470831 -0.2483 -0.00150861 0.00605203 9.09386
1.798 0.00785861 -0.00481448 -0.248026 -0.00151236 0.00604105 9.09456
1.799 0.00784393 -0.00491819 -0.247753 -0.00151609 0.00603007 9.0952
1.8 0.00783013 -0.00502419 -0.24748 -0.00151981 0.00601908 9.0958
1.801 0.00781687 -0.00513096 -0.247209 -0.00152352 0.00600808 9.09635
1.802 0.00780098 -0.00523247 -0.246936 -0.00152753 0.00599716 9.09803
1.803 0.00778681 -0.00533527 -0.246661 -0.00153169 0.0059867 9.10014
1.804 0.00777172 -0.00543393 -0.246386 -0.00153582 0.00597619 9.10208
1.805 0.00775666 -0.00553483 -0.246113 -0.0015399 0.00596563 9.10388
1.806 0.00774401 -0.00563491 -0.245842 -0.00154396 0.00595504 9.10554
1.807 0.00773023 -0.00573128 -0.245569 -0.00154798 0.00594442 9.10707
1.808 0.00771653 -0.00582767 -0.245296 -0.00155196 0.00593377 9.10849
1.809 0.0077039 -0.00592282 -0.245024 -0.00155592 0.00592309 9.10979
1.81 0.00768829 -0.00601691 -0.244751 -0.00155984 0.00591239 9.111
1.811 0.00767281 -0.00611028 -0.244479 -0.00156372 0.00590168 9.11211
1.812 0.007658 -0.00620608 -0.244204 -0.00156758 0.00589094 9.11314
1.813 0.00764525 -0.0062979 -0.243933 -0.0015714 0.0058802 9.11409
1.814 0.00762962 -0.00638901 -0.243659 -0.00157519 0.00586944 9.11496
1.815 0.00761599 -0.00647955 -0.243385 -0.00157895 0.00585867 9.11577
1.816 0.00760149 -0.00657213 -0.243114 -0.00158268 0.0058479 9.11652
1.817 0.00758552 -0.00666285 -0.242842 -0.00158638 0.00583712 9.11721
