t wx wy wz ax ay az

0.0 0.00483938 -0.00198124 0.0142446 -0.151554 -0.227065 10.1151
0.001 0.0189186 0.00701439 0.00853999 -0.290646 -0.246778 9.9038
0.002 -0.00752474 0.00555506 0.000270815 -0.308331 -0.185768 9.99101
0.003 0.00919797 0.0219349 0.00149442 -0.0327489 -0.04283 10.1428
0.004 0.0153955 -0.00140598 -0.00823754 -0.1622 -0.423963 9.75225
0.005 0.00934719 0.00555044 0.0155112 -0.105277 -0.0300216 9.73543
0.006 8.7273e-05 -0.00771943 0.0120615 -0.231273 -0.269501 10.085
0.007 0.000428583 0.000981079 0.00496469 -0.167211 -0.157933 9.94548
0.008 0.00514981 0.00599919 -0.00764816 -0.250897 -0.370144 10.1069
0.009 -0.000725148 0.00353904 -0.00837845 -0.167209 -0.173159 9.86251
0.01 0.00881488 0.00334718 -0.00118342 -0.190586 -0.362041 9.64416
0.011 -0.0322111 -0.00840368 -0.00939945 -0.187923 0.00848059 9.9395
0.012 -0.0176027 0.00142362 -0.0299836 -0.0851119 0.162656 9.99933
0.013 0.00277406 0.00880347 0.00062511 -0.379355 0.0433146 9.95455
0.014 0.00935675 0.00500503 -0.00868869 -0.0914421 -0.179461 9.80079
0.015 -0.0226906 -0.00830976 0.0151472 -0.243947 -0.160529 9.88735
0.016 -0.00487969 -0.0162523 -0.00991518 -0.357248 0.00529185 9.96324
0.017 -0.0113927 0.00106035 -0.00291353 -0.305653 -0.17432 9.62494
0.018 0.0190904 -0.0176312 -0.0126306 -0.329394 -0.17956 9.66149
0.019 -0.00669307 0.00712575 -0.000477108 -0.364977 -0.139543 9.81319
0.02 0.00346306 0.0148625 -0.00303118 -0.24931 -0.384058 9.7882
0.021 0.0169226 0.0238838 0.00775151 -0.140822 -0.238776 9.85799
0.022 -0.000319902 0.00367422 0.00227316 -0.117303 -0.339928 9.91544
0.023 0.00311288 0.0185111 -0.000309665 -0.44503 -0.180743 9.93702
0.024 -0.0134765 0.00388863 0.00437401 -0.113303 -0.0470798 9.88559
0.025 -0.0176239 0.00199835 0.0166928 -0.304061 -0.272053 9.74418
0.026 0.0124995 0.0179228 0.00138934 -0.419839 -0.0601301 9.82063
0.027 0.00746951 0.000777749 -0.00814873 -0.364741 -0.179285 9.91395
0.028 -0.00818245 0.0249922 -0.00516974 -0.272753 -0.270152 9.83956
0.029 0.0140384 0.0174721 0.00181848 -0.224874 -0.0413739 9.92141
0.03 0.0135822 -0.013428 -0.00240588 -0.187027 -0.112066 9.86833
0.031 0.00277859 0.00373205 -0.00189362 -0.175545 -0.241974 9.86428
0.032 -0.00826415 -0.000126014 -0.0103441 -0.260185 -0.0493756 9.60078
0.033 0.00435562 0.00481603 -0.00498441 -0.28325 -0.120556 9.88005
0.034 0.00690212 -0.018311 -0.00571647 -0.0196548 -0.236152 9.70101
0.035 -0.0101683 0.00482229 0.00334594 -0.197291 -0.288742 9.89999
0.036 -0.0109486 0.0308921 0.00465117 -0.317338 -0.193688 9.75178
0.037 -0.00988466 -0.00148785 0.0102619 -0.350261 -0.172616 9.70986
0.038 -0.00437994 -0.00790807 0.000252894 -0.464078 -0.219681 9.96155
0.039 0.00130483 -0.0184899 0.00455832 -0.0725307 -0.439763 10.0444
0.04 -0.00502971 0.0381833 -0.00229383 -0.180427 -0.0805002 10.0627
0.041 0.008737 -0.00766234 0.00203915 -0.228032 -0.147242 9.81632
0.042 0.00102562 -0.00410274 -0.00212564 -0.27889 -0.248476 9.83976
0.043 0.0112952 0.0135953 -0.00516332 -0.26347 -0.182328 9.59318
0.044 -0.00166527 0.00361442 0.0178908 -0.136334 -0.194153 9.91062
0.045 -0.00494991 0.0191359 0.00288181 -0.367526 -0.0863835 9.80477
0.046 0.0262708 0.00584091 -0.0088536 -0.411746 -0.125445 9.78025
0.047 -0.00860752 -0.00530712 0.014035 -0.248554 -0.191815 9.90303
0.048 0.0228332 0.0288043 0.0105157 -0.151096 0.0306837 9.85894
0.049 -0.0122417 0.00556896 -0.00234406 -0.397389 -0.223348 9.75693
0.05 -0.024919 -0.00331762 0.00074022 -0.136508 -0.213261 9.82923
0.051 -0.0104713 0.0136748 -0.00267227 -0.381533 -0.101523 9.72724
0.052 0.0190171 0.0208998 -0.0275205 -0.283886 -0.201537 9.85361
0.053 -0.0037891 0.0244751 -0.00542192 -0.19521 -0.252736 10.0318
0.054 -0.00299911 -0.000843039 -0.00239238 0.0422154 -0.118437 9.91479
0.055 -0.00742778 0.015319 0.012997 -0.207182 -0.325256 10.0908
0.057 0.014793 0.00705369 -0.00405628 -0.354722 -0.237713 9.95017
0.058 0.00142957 -0.0215892 0.00696961 -0.338085 -0.0763206 10.0431
0.059 -0.00505098 -0.000147655 0.00111384 -0.434456 -0.0620861 9.7397
0.06 0.00717655 0.00778223 0.0116538 0.0778568 -0.155428 9.94733
0.061 0.00222545 0.0134959 -0.0157353 -0.216063 -0.267771 9.94571
0.062 -0.0124393 0.00868885 -0.0147926 -0.183278 -0.191839 9.9404
0.063 0.0162006 -0.00933195 -0.0116771 -0.186825 -0.195097 10.0396
0.064 -0.0151886 -0.00262361 -0.0111995 -0.138749 -0.251428 9.81706
0.065 -0.0176416 -0.00884273 0.00066894 -0.315017 -0.255622 9.8441
0.066 -0.00219423 0.00909026 0.00127862 -0.00737852 -0.0719841 10.1162
0.067 -0.0100836 0.0116048 -0.0140348 -0.415343 -0.382599 9.62585
0.068 -0.00155645 -0.0087754 0.0134376 -0.289842 -0.299518 9.89918
0.069 0.00798857 0.00204875 0.00155244 0.0240785 -0.344797 9.94981
0.07 0.0101406 0.0146133 0.0111418 -0.192728 -0.1637 9.77683
0.071 0.0149778 0.0213333 0.000130332 -0.328364 -0.0966815 9.68928
0.072 0.00607438 -0.00331604 0.00325482 -0.526002 -0.411536 9.98295
0.073 0.0076385 0.00344327 0.010789 0.0459952 -0.0218534 9.98251
0.074 0.00310231 -0.0102357 0.00194829 -0.2802 -0.107039 9.90808
0.075 -0.010659 0.011393 0.0086584 -0.208953 -0.111822 9.84135
0.076 0.00921523 0.00722595 0.00537607 -0.232821 -0.286594 9.82973
0.077 -0.0065036 -0.000923275 0.00698501 0.105951 -0.163107 9.84397
0.082 -0.00147054 0.0219768 -0.00372869 -0.159065 -0.374196 9.78873
0.083 -0.0152155 -0.00125016 0.00816072 -0.237195 -0.0485912 9.84769
0.084 -0.00530862 0.00688852 -0.00898041 -0.181777 -0.158494 10.0756
0.085 0.00321737 -0.00193413 -0.0155606 -0.301687 -0.0827724 9.8356
0.086 0.0257446 -0.0142723 -0.00730812 -0.345605 -0.186192 9.97298
0.087 0.00413146 0.0124802 0.0035229 -0.201764 -0.169096 9.94969
0.088 -0.000708395 0.0216008 -0.00894153 -0.188707 -0.118343 9.88151
0.089 -0.00460481 0.00493925 0.00217132 -0.180468 -0.30562 9.94064
0.09 0.0161174 0.019765 0.00229598 -0.12348 -0.147535 9.89659
0.091 -0.0314653 0.00152829 -0.0167689 -0.117929 0.0271216 10.1775
0.095 0.00510215 0.0360394 0.00798061 -0.254781 -0.298917 9.78817
0.096 -0.0027681 0.00066065 -0.0128539 -0.310155 -0.247687 9.93482
0.097 0.0132116 -0.00991454 -0.00351683 -0.455317 -0.137892 9.87944
0.098 0.0121625 0.0100572 -0.000787558 -0.241801 -0.188729 9.84588
0.099 0.00552159 0.0118178 -0.00728081 -0.296111 -0.0974407 9.87206
0.1 -0.0129583 -0.022637 -0.00549967 -0.0717605 0.0765593 9.7518
0.101 -0.0107687 0.010333 -0.0238273 0.0284633 -0.278001 9.68418
0.102 -0.0293886 0.0103092 0.00330802 -0.149264 -0.185472 9.83604
0.103 -0.00540841 0.00858973 0.00554044 -0.388287 -0.283754 9.94849
0.104 -0.0116751 -0.000712524 -0.00364665 -0.407303 -0.339794 9.91453
0.105 -0.00752365 0.003397 -0.00255211 -0.231912 -0.0896742 9.55558
0.106 0.00469001 0.0139398 -0.00248374 -0.138928 -0.228839 10.0615
0.107 -0.0151704 -0.0119058 0.0074511 -0.394883 -0.091667 9.79941
0.108 0.0022739 0.00741938 -0.000841559 0.0600636 -0.114912 9.6339
0.109 0.00617724 0.00235514 -0.000556673 -0.168163 0.0582306 9.6913
0.11 0.0164521 0.000140522 0.0103508 -0.128407 -0.220616 9.93425
0.111 -0.00503622 -0.00471857 -0.0093004 -0.200529 -0.14033 9.91696
0.116 0.0207953 0.0110845 -0.00359635 -0.169186 -0.079287 9.98229
0.117 -0.0216005 0.0012994 0.00209939 -0.220946 -0.0306561 9.74785
0.118 0.0124278 -0.000778678 0.0145514 -0.411317 -0.0885878 9.94156
0.119 0.00607364 -0.00868197 -0.00886456 -0.292369 -0.206911 10.0853
0.12 0.00487392 0.00036729 -0.000534246 -0.01895 -0.0952203 9.92138
0.121 -0.0230357 0.00977596 -0.00124424 -0.224127 -0.429025 9.7476
0.122 -0.00750435 0.00686313 -0.000868737 -0.277652 -0.259576 9.7522
0.123 0.000319202 0.0045499 -0.0131795 -0.0988442 0.0174955 9.92692
0.124 -0.0193971 0.0188013 0.00100618 -0.0344937 -0.385856 9.94568
0.125 -0.0125871 0.0149285 -0.0191532 -0.364669 -0.318952 10.065
0.126 -0.00229179 0.00373653 0.0140532 -0.0925491 -0.149999 9.94608
0.127 -0.00831086 0.00690769 0.00499298 -0.124826 -0.479471 9.89697
0.128 0.00388793 0.00614578 0.00776024 -0.156827 -0.202434 9.80779
0.129 -0.011497 0.0148734 -0.00492881 -0.195848 -0.140316 9.91131
0.13 0.000859629 0.00227742 -0.00716797 -0.275186 -0.175478 9.86851
0.131 0.00246742 0.00509349 0.00199866 -0.394467 -0.257083 9.992
0.132 0.0104589 0.00334551 -0.0116039 -0.329475 -0.162859 9.86798
0.133 -0.0102476 7.13055e-05 0.00855491 -0.166915 -0.0132719 9.89993
0.134 -0.00726588 -0.00840222 -0.02837 -0.436296 -0.338506 9.87316
0.135 0.00859587 -0.00372588 0.00233882 -0.416566 0.0430666 9.78825
0.136 0.00518197 0.0104928 -0.00640577 -0.189303 -0.307595 10.1474
0.137 -0.00194239 0.00387279 0.0127231 -0.143906 -0.0382301 9.93171
0.138 -0.0048428 0.00752489 0.0124581 -0.22798 -0.330659 9.85523
0.139 0.00642157 0.00710684 -0.0208326 -0.0812352 -0.126202 9.78385
0.14 0.00503387 0.00815807 0.0187294 -0.225203 -0.391125 9.91501
0.141 -0.0013749 0.0130324 -0.00346058 -0.220318 -0.122157 9.99986
0.142 0.000364208 0.00796181 -0.0111675 -0.128306 -0.277163 9.84525
0.143 0.0212834 0.0107344 -0.0173454 -0.0774727 -0.332936 9.97115
0.144 0.0067391 0.0200121 -0.0160875 -0.207018 -0.120694 9.81506
0.145 -0.023744 -0.000552626 -0.0186573 -0.0407059 -0.210831 9.97554
0.146 0.0109409 -0.00388928 0.0123405 -0.049237 -0.321932 9.92154
0.147 -0.0161456 0.00374058 -0.011105 -0.281118 -0.248261 9.99239
0.148 0.0139245 -0.00637199 -0.00513841 -0.608007 -0.12285 9.97326
0.149 -9.9623e-06 0.0173875 0.00473826 -0.102898 -0.038069 9.74925
0.15 -0.0029941 0.00426068 -0.0118326 -0.167987 -0.268878 9.76834
0.151 0.00948723 0.00344198 -0.00444164 -0.125986 -0.264497 10.0695
0.152 -0.00546875 -0.00487708 0.00688375 -0.271835 -0.210238 9.62975
0.153 -0.0139026 0.0170486 -0.000305861 -0.301743 -0.135966 10.0242
0.154 -0.00373484 0.0087149 -0.000193248 -0.450589 -0.185478 10.0305
0.155 -8.51251e-05 0.00956472 0.000463081 -0.54357 -0.406812 9.79912
0.156 0.017611 0.0134469 -0.0192711 -0.0546175 -0.208244 9.91701
0.157 -0.00990532 -0.014648 0.00867222 -0.334684 -0.233878 10.0008
0.158 0.00663129 0.0155122 0.00575243 -0.205057 -0.330109 10.0169
0.159 -0.00547049 -0.000987762 -0.0207168 -0.0712951 -0.361687 9.73145
0.16 0.0104081 0.00768216 0.0198829 -0.337265 -0.0988395 9.91631
0.161 -0.00366718 0.0212345 -0.00173787 -0.24714 -0.0785678 9.87471
0.162 -0.010601 0.00378061 0.0063702 -0.305489 0.0286035 9.76341
0.163 0.0115998 0.0111497 -0.00612015 -0.164554 -0.104915 9.64949
0.164 -0.0271254 0.00866316 -0.000608824 -0.376413 -0.289698 10.0819
0.165 -0.00811337 0.00326624 0.00706478 -0.0870638 -0.123723 9.64921
0.166 -0.0112169 -0.00346458 0.00776905 -0.263972 -0.309443 10.0315
0.167 -0.0193344 0.00413309 -0.00999396 -0.158093 -0.181183 9.88232
0.168 0.000433238 0.00413568 -0.0295561 -0.278754 -0.192733 9.75118
0.169 -0.0122901 -0.00768905 -0.00408201 -0.539557 -0.00372734 9.98475
0.17 -0.00663209 0.00460791 0.0213248 -0.178131 -0.272892 9.87679
0.171 -0.0125332 0.0181759 0.0103014 -0.0641212 -0.170995 9.82693
0.172 -0.00878998 0.000269933 0.0111163 -0.365112 -0.385629 9.81562
0.173 -0.00331728 0.00700108 -0.00368352 -0.462253 0.135511 9.79592
0.174 0.0197305 0.0154173 0.00966241 -0.174424 -0.200631 9.98067
0.175 -0.0175159 0.00579923 -0.00265608 -0.233282 -0.0677248 9.77477
0.176 0.00797594 0.00344861 0.000876633 -0.432799 -0.270338 10.0293
0.177 -0.0132396 0.000381083 -0.020524 -0.185249 -0.408994 10.0958
0.178 0.00370059 0.00959174 0.00355708 -0.464891 -0.378171 9.77432
0.179 -0.00169895 0.0117712 -0.0180679 -0.252656 -0.247709 9.83197
0.18 -0.00291217 0.00125774 -0.00475634 -0.0829258 -0.144393 9.8964
0.181 -0.0149814 0.0282718 0.0087266 -0.250576 -0.3017 9.83371
0.182 0.00782379 0.00691155 0.0205606 -0.380677 -0.20643 9.8462
0.183 -0.00749825 0.00123653 0.00709044 -0.273283 -0.24954 10.0292
0.184 -0.0142058 0.0178463 -0.000559708 -0.294096 -0.082027 9.85598
0.185 -0.00843678 0.0142889 -0.00560122 -0.157607 -0.0986633 10.1246
0.186 0.00200288 0.0211912 -0.0270536 -0.215105 -0.178239 10.0267
0.187 -0.00942779 -0.00359713 -0.00772175 -0.087659 -0.254087 9.89002
0.188 -0.00423178 0.0219734 -0.016756 -0.285405 -0.0692426 9.88464
0.189 -0.0190977 0.0115397 -0.0128274 -0.241639 -0.209424 9.69748
0.19 -0.00319339 0.00153224 0.0130392 -0.245844 0.0186671 9.97812
0.191 0.0208157 0.0168904 0.0116562 -0.162561 -0.221021 9.84735
0.192 0.00455211 0.00985324 -0.00940841 -0.360399 -0.0751052 9.83515
0.193 -0.00491466 -0.0122147 -0.00994803 -0.270948 -0.254585 9.84204
0.194 0.0123548 0.0134939 -0.0193134 -0.370715 -0.355566 9.63042
0.195 0.00414251 0.0235615 -0.0132745 -0.216718 -0.20472 9.82908
0.196 -0.0239136 0.00719244 -0.000239923 -0.262475 -0.291301 9.72427
0.197 -0.0233511 0.0234998 0.00401762 -0.379274 -0.297648 9.85302
0.198 0.00488917 0.0121405 -0.00238436 -0.150444 -0.20973 9.99188
0.199 0.00184547 0.0060237 -0.0139114 -0.39576 -0.323289 9.86358
0.2 -0.0146155 0.0142323 -0.00161968 -0.517946 -0.162981 9.83877
0.201 0.00533533 -0.00693029 0.0110041 -0.250718 -0.289985 9.79354
0.202 -0.00561221 0.0231198 0.0183638 -0.257875 -0.271848 9.57906
0.203 -0.0135725 -0.00685951 -0.00971989 -0.192572 -0.341075 9.87282
0.204 0.0100512 0.000265556 0.0257317 -0.269023 -0.238928 10.0299
0.205 0.00385152 0.00155471 -0.00124775 -0.138562 -0.0723192 9.98571
0.206 -0.00771349 0.00438077 -0.0133841 -0.152161 -0.356025 9.8685
0.207 0.00664574 0.00781748 0.00264508 -0.242293 -0.33083 10.0167
0.208 -0.0124074 0.018527 0.0174917 -0.172236 -0.216485 9.85955
0.209 -0.00294305 0.000404076 0.0141066 -0.261693 -0.21362 10.0397
0.21 0.0119677 0.014844 0.00794095 -0.177357 -0.183307 9.83079
0.211 9.52045e-05 -0.00116259 0.00461951 -0.11213 -0.251317 10.0218
0.212 0.00548724 -0.00300628 0.0102116 -0.278576 -0.0619286 9.72902
0.213 -0.0132917 0.0114871 -0.0028294 -0.325909 -0.0545823 9.84057
0.214 0.00596597 0.0152681 -0.00297556 -0.332876 -0.211418 9.85979
0.215 0.0141729 0.00108612 0.00570343 -0.278779 -0.211522 9.85735
0.216 -0.00466659 0.0116081 0.00442183 -0.240467 -0.172972 9.94552
0.217 -0.0134179 -0.00204831 -0.00362074 -0.336534 -0.598831 10.019
0.218 0.0117954 0.00743028 -3.08818e-05 -0.290094 -0.369171 9.88744
0.219 -0.00728859 0.00650373 -0.00962288 -0.251868 -0.241382 9.8844
0.22 0.00705958 0.0141442 0.00332084 -0.32411 -0.149062 9.96561
0.221 -0.00808232 0.0214248 -0.000533176 -0.317339 -0.17347 10.1304
0.222 -0.00319844 -0.000960655 0.0124261 -0.221292 -0.245024 9.91011
0.223 -0.00369431 0.00534274 0.0103424 -0.252011 -0.0825668 9.61937
0.224 -0.00192199 0.0292177 0.000310197 -0.219778 -0.147623 10.0456
0.225 0.00429093 0.0193478 -0.00297794 -0.04236 -0.186618 9.86956
0.226 -0.00221306 0.0129664 0.0100488 -0.194866 -0.289337 9.96284
0.227 -0.0101192 0.00914951 0.008582 -0.0237756 -0.201677 10.0817
0.228 -0.0203582 0.00720209 -0.00705138 -0.134499 -0.344711 10.1674
0.229 0.00372301 0.008381 0.00422706 -0.31535 -0.108119 9.99037
0.23 0.00686892 0.0127459 -0.00266709 -0.434712 -0.488928 9.99341
0.231 0.0124304 -0.016883 0.00939473 -0.0755905 -0.184965 9.90599
0.232 -0.00656428 -0.0213353 -0.00218396 -0.123311 -0.206255 10.0031
0.233 0.0241325 0.00389969 0.00923363 -0.373247 0.161452 10.0662
0.234 -0.00182679 -0.00898713 -0.00938758 -0.154231 -0.153529 9.90063
0.235 0.00662615 0.0245309 -0.0153688 -0.184208 -0.163762 9.79138
0.236 0.00290215 0.00755336 0.00283003 -0.267091 -0.259809 9.87152
0.237 0.00983889 0.00511647 -0.00915747 -0.356922 -0.264588 9.84395
0.238 0.00277693 0.0233752 0.00870867 -0.127514 -0.256122 9.88193
0.239 -0.0120192 -0.00213456 0.0292631 -0.18848 -0.301538 9.89165
0.24 -0.0130969 -0.00113387 -0.00228716 -0.120352 -0.344881 10.1146
0.241 -0.00319695 0.0207431 0.0208488 -0.1633 -0.261437 9.80069
0.242 0.00866569 0.0105579 -0.0294856 -0.304878 -0.163557 9.97803
0.243 0.00943462 0.00557764 0.0234215 -0.417436 -0.245893 10.0226
0.244 0.013229 0.0207229 -0.00845124 -0.321104 -0.0916768 9.93203
0.245 -0.00765732 0.00765584 -0.00790839 -0.08161 -0.0815871 9.92348
0.246 0.0148522 -0.013468 -0.0071126 -0.249807 -0.16843 9.68429
0.247 0.0220798 0.0120945 -0.00938636 -0.37351 -0.230633 10.014
0.248 0.00254314 0.00614693 -0.0116145 -0.279953 -0.319525 9.68749
0.249 -0.0109322 0.0195865 0.023194 -0.301304 -0.431704 9.91123
0.25 -0.0103819 0.00244212 -0.0110647 -0.328201 -0.553353 9.95429
0.251 -0.000917414 0.00964746 -0.00791209 -0.179714 -0.440768 9.7756
0.252 0.00430786 -0.0163382 -0.013117 -0.317931 -0.337477 10.0701
0.253 0.00844644 -0.00715861 0.0104744 -0.349226 0.0118852 9.67087
0.254 -0.0118521 0.0253323 -0.00504662 -0.619917 -0.125432 9.89389
0.255 -0.00633559 0.0170457 0.0097931 -0.297857 -0.173325 9.82968
0.256 0.00375295 -0.0014127 0.00967811 -0.0824974 -0.0827621 9.72187
0.257 0.00585939 -0.0135105 -0.0148468 0.0985955 -0.0522995 10.1066
0.258 -0.0161575 0.0136601 -0.00579994 -0.447481 -0.0961689 9.84949
0.259 0.0124824 0.00789369 -0.00171122 -0.0272836 -0.208565 9.93899
0.26 0.0195903 -0.0163733 -0.0129357 -0.383062 -0.0353761 9.71361
0.261 0.00016452 0.0127018 -0.0094113 -0.369572 -0.357107 9.72193
0.262 -0.00146289 0.023769 -0.0111016 -0.102166 -0.0856229 9.80839
0.263 -0.0146422 0.0139935 -0.00620198 -0.365795 -0.356659 9.87786
0.264 -0.0115791 -0.00240668 0.000574532 -0.01148 -0.277585 9.92359
0.265 0.00183078 0.0198068 0.0122219 -0.143509 -0.165284 9.80448
0.266 0.0108306 0.00262874 -0.00873092 -0.455915 -0.0527284 10.1398
0.267 -0.00364793 -0.00995083 0.018021 -0.245198 -0.349389 9.84007
0.268 0.0122002 0.00575067 -0.00473833 -0.362758 -0.335266 9.78796
0.269 -0.0131831 0.00434885 0.00324296 -0.369071 -0.0273838 9.85861
0.27 -9.61577e-05 0.0170379 -0.0241294 -0.0969775 -0.406325 9.81142
0.271 -0.00430468 0.00473104 0.000742481 -0.0406753 -0.367957 9.83544
0.272 -0.00961508 -0.00313643 -0.00433889 -0.295592 -0.229368 9.84776
0.273 0.0009018 0.0190673 -0.00869605 -0.262914 -0.4315 9.88903
0.274 -0.000295389 -0.002956 -0.00303576 -0.166344 -0.193941 9.7217
0.275 -0.000826627 0.014051 -0.00147789 -0.218823 -0.174832 10.0391
0.276 -0.00665339 -0.00152316 0.014456 -0.300851 0.00804235 9.7981
0.277 -0.0237458 0.0118812 -0.0109598 -0.323575 -0.3565 9.89365
0.278 0.0176141 0.0103323 -0.0186713 -0.172556 -0.20991 9.74762
0.279 -0.0164415 0.0110747 -0.00958747 -0.30639 -0.192362 10.0473
0.28 0.00142878 0.00999878 0.00637185 -0.221187 -0.55139 9.92513
0.281 -0.000663163 0.00868498 0.00390388 -0.0963722 -0.191611 9.93483
0.282 -0.00138789 -0.0102065 -0.00509901 -0.0999144 -0.387174 10.0308
0.283 0.00780974 -0.0040641 0.00402243 -0.0846052 -0.0161709 9.90936
0.284 0.00560705 -0.00763323 -0.00195018 -0.382072 -0.24007 9.75288
0.285 0.00775114 -0.00962974 -0.00364646 -0.136851 -0.156152 9.90724
0.286 0.00674033 0.0150779 -0.0201231 -0.278508 -0.344611 9.72672
0.287 0.00962088 0.0192249 -0.00605588 -0.231817 -0.190791 9.82979
0.288 0.00797549 0.0124694 0.00319975 -0.23082 -0.147792 10.0271
0.289 -0.0229509 -0.0190469 -0.00310622 -0.167777 -0.221356 9.62697
0.29 0.00768469 0.0179782 0.0159895 -0.286027 -0.160804 9.82134
0.291 -0.0232141 0.0232262 0.00215327 -0.322201 -0.0396159 9.81553
0.292 -0.00692229 0.00105107 0.0188105 -0.271208 -0.188776 10.1593
0.293 0.00635724 0.0195086 -0.002966 -0.193494 -0.0994755 10.0562
0.294 -0.00222962 -0.0154621 -0.0153621 -0.168516 0.0136351 9.80696
0.295 -0.0047057 0.0194851 0.0253551 -0.324949 -0.00908993 9.76381
0.296 -0.0141846 0.0170548 -0.00414212 -0.300452 -0.107183 10.185
0.297 0.0111577 0.00715854 -0.0115092 -0.228676 0.0494634 9.9584
0.298 -0.0014732 0.0218085 -0.00452846 -0.458016 -0.386461 9.7806
0.299 -0.00340287 0.0189462 -0.00815563 -0.201484 -0.234832 9.98971
0.3 -0.0001949 0.0242468 -0.022285 -0.18406 -0.0631468 10.1018
0.301 -0.0129364 0.0204844 0.0100816 -0.2355 0.0242223 9.81827
0.302 0.0127032 0.0105282 0.00454464 -0.330945 -0.221511 9.84905
0.303 0.0139753 0.00209926 -0.00384344 -0.360898 -0.00695741 9.88102
0.304 -0.00287331 0.0298021 0.0165154 -0.332132 -0.264617 9.74456
0.305 0.00162329 -0.00911684 -0.00547175 -0.145574 -0.169608 10.0425
0.306 -0.00338376 0.0081011 0.00054637 -0.272636 -0.325141 9.66898
0.307 -1.57883e-05 -0.0128777 -0.00581921 -0.326701 -0.268887 10.1318
0.308 0.00876848 -0.00600228 -0.00250455 -0.206997 -0.191818 9.57431
0.309 -0.00154687 0.0124986 0.00342221 -0.234747 -0.115446 10.0545
0.31 -0.00656398 0.00658768 0.0242276 -0.0775595 -0.284811 9.70162
0.311 -0.0108886 -0.0119806 -0.00403041 -0.112785 -0.0290162 9.95126
0.312 -0.00171523 0.0140849 0.0122067 -0.17134 0.0131284 9.70847
0.313 0.00384768 -0.00601616 -0.000507023 -0.391079 -0.265721 9.73827
0.314 0.0140969 -0.00460293 0.00284815 -0.357389 -0.228888 9.85983
0.315 0.0154158 -0.00416731 -0.00151245 0.0156931 -0.175312 9.9192
0.316 0.0102765 0.0157902 0.00698477 -0.0354055 -0.311301 9.8863
0.317 -0.00051537 0.0148299 0.0128824 -0.3609 -0.2306 9.86604
0.318 0.0109614 -0.00576714 -0.00289277 -0.232221 -0.383624 9.99026
0.319 -0.0172553 -0.0131588 0.0202058 -0.458038 -0.164384 9.87331
0.32 -0.0191272 0.0285036 0.00429652 -0.332345 0.0586177 9.79923
0.321 -0.00196106 0.0132441 0.00500679 -0.0493467 0.0403115 9.92073
0.322 0.00907127 0.017639 -0.0170599 -0.311446 -0.0911207 9.70159
0.323 0.00328231 8.17755e-05 0.00241342 -0.186546 -0.204552 10.0428
0.324 0.00407247 0.0110902 -0.0225994 -0.298335 -0.253335 9.83685
0.325 -0.0166618 0.00701413 -0.00836911 0.0444101 -0.0435513 9.63035
0.326 -0.00798491 0.00282427 -0.00554295 -0.114276 -0.262515 10.0202
0.327 -0.00297502 0.00434316 -0.00144703 -0.208506 -0.246488 9.97661
0.328 -0.0107711 0.010585 0.007061 -0.0903205 -0.329682 9.80258
0.329 0.0157579 0.000986418 0.0147106 -0.449072 -0.318675 9.84754
0.33 -0.00296486 0.000549061 0.00685844 -0.306762 -0.173905 9.93386
0.331 -0.00606128 0.00133589 0.0093759 -0.274439 -0.25626 9.95117
0.332 -0.0136832 -0.00381959 -0.0154956 -0.0974105 -0.404494 9.7765
0.333 -0.00446359 0.00454991 -0.00190202 -0.27383 -0.172639 9.65368
0.334 0.00780961 0.011774 0.0122416 -0.114707 -0.196353 9.73216
0.335 -0.00434547 0.0161388 0.00635168 -0.308324 -0.279921 9.78383
0.336 -0.00312712 0.0136804 0.00449703 -0.108884 -0.310596 9.89006
0.337 -0.000567339 0.00803939 -0.00072453 -0.0729027 -0.0746871 9.89817
0.338 -0.00373624 0.0145351 -0.00106901 -0.266772 -0.0912437 9.73744
0.339 -0.00717675 0.00913401 0.00323329 -0.195068 -0.291656 9.96015
0.34 -0.0154498 -0.0017666 0.00527864 -0.192067 -0.129488 9.78141
0.341 -0.00704909 -0.00042101 0.00127432 -0.290536 -0.15436 9.96019
0.342 -0.00155 0.0097728 0.0123432 -0.253329 -0.273495 9.9784
0.343 -0.00138257 0.00600059 0.000272361 -0.309499 -0.209529 9.87571
0.344 0.0237616 0.011478 0.00237819 -0.105928 -0.364836 9.81059
0.345 0.0181632 0.013249 0.00265239 -0.143309 -0.289385 9.82584
0.346 -0.00121651 0.0128184 -0.0146329 -0.277746 -0.239974 10.0944
0.347 -0.00245791 0.015906 0.00531945 -0.263388 -0.299504 10.0101
0.348 -0.00942695 -0.00269028 0.00131043 -0.258957 -0.20732 9.70682
0.349 -0.0216382 0.0149166 -0.00411993 -0.184136 -0.204912 9.93206
0.35 -0.0259553 0.00374068 0.0110522 0.0314462 -0.115301 9.90574
0.351 -0.0113544 0.000889414 -0.00116502 -0.100703 -0.299122 9.87546
0.352 -0.00240218 0.00124771 -0.00758377 -0.15921 -0.247784 10.1176
0.353 -0.0118687 -0.00144639 0.0024163 -0.107497 -0.328513 9.94805
0.354 0.00179208 0.00307789 0.0115435 -0.0200709 -0.136469 10.0386
0.355 -0.0144885 0.00940278 -0.00504477 -0.396049 -0.201668 9.90031
0.356 -0.00295929 0.00570779 -0.00513583 -0.170373 -0.0373485 10.0171
0.357 0.0133713 0.00264363 -0.0187158 -0.219314 -0.21284 10.1471
0.358 0.00415946 0.00650339 0.0057981 -0.107682 -0.19762 9.7077
0.359 -0.00968551 0.0143069 0.0115081 -0.313163 -0.311964 9.92107
0.36 0.0244874 0.0059032 0.00434489 -0.245823 0.0612984 9.97032
0.361 -0.00609963 0.00502264 0.00443105 -0.304694 -0.393562 9.75774
0.362 0.0214206 -0.00214053 -0.0026504 -0.159551 -0.189289 10.0237
0.363 0.00715729 -0.0113734 0.0243797 -0.270363 -0.157158 9.92573
0.364 -0.0121712 0.00706072 0.000216148 -0.418335 -0.445666 9.76264
0.369 -0.00354176 0.0215724 -0.0170893 -0.126464 -0.26045 9.81928
0.37 -0.00847453 -0.00463471 -0.00172421 -0.382219 -0.183293 9.86662
0.371 -0.020262 0.00653851 -0.0201731 -0.0714082 -0.24354 9.91676
0.372 -0.00340639 -0.00240643 0.00599009 0.107753 -0.126959 10.0282
0.373 -0.00129745 0.00242178 0.00840024 -0.245453 0.00220972 9.82255
0.374 -0.00148113 0.0165694 0.00473063 -0.181939 -0.285463 9.79163
0.375 -0.0169472 0.00141201 0.0045997 -0.0254127 -0.406276 10.0414
0.376 -0.0117776 0.00144668 0.00596015 -0.300708 -0.108727 9.7599
0.377 -0.000173058 0.00963246 -0.00918782 -0.308456 -0.236949 9.76762
0.378 -0.00946763 -0.00638695 -0.00342382 -0.222958 -0.258406 9.96636
0.379 -0.00742021 0.0122557 0.0158167 -0.308456 -0.132046 9.67514
0.38 0.0159644 0.00194545 -0.0152658 -0.579977 -0.213802 9.80422
0.381 -0.0075333 0.018409 -0.00929131 -0.243446 -0.22014 9.82086
0.382 0.0167089 -0.00486587 0.0038535 -0.253501 -0.354393 9.99579
0.383 -0.0113365 0.00948155 0.0018896 -0.182883 -0.232164 9.74653
0.384 0.00360459 -0.00361893 0.0114604 -0.291562 -0.135447 9.87865
0.385 -0.00442294 0.0079521 -0.00323503 -0.041354 -0.178738 9.77766
0.386 0.00428772 -0.00307961 0.0197413 -0.0662161 -0.167818 9.78827
0.387 -0.00373954 0.00241384 0.0127266 -0.177522 -0.260263 9.83141
0.388 0.00255179 0.00858043 0.013664 -0.266607 -0.0122665 9.67349
0.389 0.00640093 -0.0126391 0.00609103 -0.488235 -0.210745 9.94626
0.39 0.00544645 -0.00273596 0.00577854 -0.366369 -0.0482721 10.0279
0.391 -0.00941065 0.00840571 -0.000549786 -0.313417 -0.0827362 10.0183
0.392 0.0131427 0.0159737 -0.000104001 -0.22822 -0.217986 9.92324
0.393 0.0135721 -0.00344769 -0.00502079 -0.261415 -0.3808 10.0228
0.394 0.00499672 0.0119702 0.00774102 -0.186595 -0.201595 9.76882
0.395 -0.00762479 0.0300439 0.00238961 -0.0755276 -0.230927 9.81568
0.396 0.0159713 0.0258634 -0.00492162 -0.166383 0.0638132 9.80655
0.397 0.00667566 -0.0209914 -0.00233146 -0.275383 0.11409 9.85325
0.398 -0.0106764 -0.00716586 -0.00717453 -0.392182 -0.140631 9.79958
0.399 0.00494949 0.00235448 0.00653357 -0.219797 0.0428703 10.0201
0.4 -0.00956317 0.00371539 0.0155963 -0.143196 -0.228914 9.7833
0.401 -0.0181652 -0.00173037 0.0126091 -0.140696 -0.135695 9.85702
0.402 0.0245557 0.00945058 0.00111419 -0.167961 -0.371364 10.0364
0.403 -0.00718972 -0.00754353 0.00731046 -0.366377 -0.0491554 9.6259
0.404 -0.00847189 0.000291797 0.00261301 -0.152354 -0.250243 10.0527
0.405 0.00498388 0.00330305 -0.00477064 -0.275643 -0.13705 9.58002
0.406 0.00795586 0.00775502 -0.0129459 -0.138548 -0.281255 9.99417
0.407 -0.00183602 -0.0126134 -0.0021919 -0.124624 -0.110011 9.79433
0.408 -0.0140985 0.0166504 0.0055974 -0.220488 -0.195274 9.97777
0.409 -0.00265648 0.0147001 -0.00315173 -0.17626 -0.208542 9.90479
0.41 -0.00120747 0.00327745 0.00802793 -0.140637 -0.140801 9.89752
0.411 -0.00506438 0.0117378 -0.00783501 -0.349131 -0.0167999 9.83373
0.412 0.020755 0.0179098 -0.00822114 -0.193602 -0.119246 9.7862
0.413 0.00184075 0.0212707 0.014158 -0.175878 -0.232349 9.82018
0.414 0.0043751 -0.0102055 -0.000697573 -0.203621 -0.081324 9.73213
0.415 0.00800514 0.0187859 0.00686285 -0.0717451 -0.219035 9.85682
0.416 0.0105272 -0.00425565 0.00425404 -0.487018 -0.297905 9.85642
0.417 -0.00298819 0.0109805 0.00154482 -0.308098 -0.334769 9.97575
0.418 0.0147952 0.0142064 -0.0104292 -0.178008 -0.18507 10.1467
0.419 0.00915798 0.0279494 0.0121766 0.102763 -0.186045 9.8206
0.42 0.0232932 -0.002111 -0.0131452 -0.38154 -0.324934 9.76689
0.421 0.0138865 0.00339196 -0.000478778 -0.489501 -0.302993 9.76362
0.422 0.00432637 -0.00797189 -0.00319123 -0.134418 -0.102733 9.8406
0.423 0.00532488 0.0207397 -0.0119016 -0.377775 -0.453256 10.0946
0.424 0.00521426 0.0220452 -0.00957168 -0.157707 -0.0403339 10.0046
0.425 -0.00184372 -0.00795962 0.00588464 0.00292433 -0.19499 9.6603
0.426 0.00442919 -0.00200925 0.00602551 -0.305032 -0.299554 9.96781
0.427 -0.00723152 -0.00773719 -0.0038713 -0.369467 -0.256382 10.2057
0.428 -0.0206202 -0.00210654 -0.0017926 -0.417799 -0.221858 9.86059
0.429 0.000551022 -0.00549698 -0.00990155 -0.37142 -0.330581 10.0887
0.43 -0.018856 0.0101231 0.0164098 -0.308475 -0.164856 10.2007
0.431 -0.000441193 0.00456334 0.00661939 -0.237261 -0.108089 9.86086
0.432 -0.00358078 -0.00630044 -0.0156924 -0.18446 -0.215166 9.62814
0.433 -0.00289006 0.00914471 -0.00765525 -0.43663 -0.21877 9.84156
0.434 -0.0060074 0.0266435 0.00843525 -0.0677847 -0.40393 10.0915
0.435 -0.0129875 0.000948445 0.0185089 -0.11367 -0.366106 9.79267
0.436 0.0116837 0.0170612 0.000252941 -0.173385 -0.14926 9.77855
0.437 -0.0150851 -0.00408715 -0.0117772 -0.0389119 -0.0956882 9.84671
0.438 -0.0255371 0.0194795 0.0189305 -0.240543 -0.389566 10.0723
0.439 -0.0155323 0.00928004 -0.00356558 -0.505455 -0.349263 9.8752
0.44 0.00186452 0.00448062 0.0121871 -0.276558 -0.275254 9.59046
0.441 -0.00872593 0.012922 0.00750241 0.0232847 -0.189328 9.75363
0.442 0.0209661 0.0288128 0.00617553 -0.386124 -0.360905 9.83618
0.443 -0.0195169 0.0118849 0.00214505 -0.36256 -0.167373 9.73979
0.444 0.00830793 -0.0118077 0.00976597 -0.100124 -0.26306 9.85684
0.445 0.00813758 0.0119411 0.00271438 -0.181313 -0.321041 9.92274
0.446 0.00673176 0.019298 -0.00770187 -0.230368 -0.167818 9.97021
0.447 -0.00245961 0.00276109 -0.0100197 -0.277854 -0.0643663 9.85583
0.448 0.0100494 0.0127609 0.00347804 -0.191303 -0.209934 9.66352
0.45 0.0107395 -0.00767682 0.00330303 -0.287577 -0.174274 9.89202
0.451 -0.00467891 0.00346821 -0.00568726 -0.207455 -0.126484 9.93751
0.452 -0.00026564 0.00751169 -0.00412748 -0.275812 -0.380903 9.79338
0.453 -0.00379251 -0.00552594 -0.00517106 -0.174007 -0.442369 9.72879
0.454 0.00398314 0.0254557 0.00773293 -0.287356 -0.241547 9.8859
0.455 -0.00874343 -0.00547104 -0.00620123 -0.245463 -0.132104 10.0631
0.456 0.0229808 0.0137926 0.00668967 -0.202991 -0.000317656 9.9289
0.457 -0.009764 0.0243869 0.0127694 -0.26986 -0.216678 10.0324
0.458 -0.0262068 0.00393757 -0.0020284 -0.264358 -0.117096 9.9897
0.459 -0.00373211 -0.0053461 0.0085932 -0.025245 -0.102816 9.81998
0.46 -0.0123227 0.0227524 -0.000109093 -0.511271 -0.146634 10.0295
0.461 0.00527114 0.0165656 0.00567911 -0.00751335 -0.297212 9.83206
0.462 0.00171941 -0.00022801 0.00015465 -0.336271 -0.256938 9.81966
0.463 -0.0080864 -0.00445946 -0.0126554 0.0257517 -0.474371 9.79947
0.464 -0.000267033 -0.00256158 0.00509302 -0.307724 -0.0902549 9.75549
0.465 -0.00873042 0.0273554 0.0135344 -0.0465583 -0.165424 9.94236
0.466 0.00790208 0.00129658 -0.0108271 -0.308843 -0.176696 9.90836
0.467 -0.00459977 0.00754064 -0.023862 -0.124088 -0.0441365 9.68531
0.468 0.000558668 0.00482702 0.0158969 -0.35645 -0.336389 9.81485
0.469 -0.00322572 0.0142418 -0.000343886 -0.178798 -0.422643 9.94992
0.47 -0.00622741 0.0100343 0.0152929 -0.176056 -0.298408 9.82489
0.471 0.0160972 0.0230753 0.00417241 -0.253429 -0.26623 10.0469
0.472 0.0185905 -0.00468577 0.0122338 -0.251963 -0.00952956 9.78136
0.473 -0.000630094 -0.000689578 -0.00443081 -0.315854 -0.12512 9.89677
0.474 0.0211309 0.00605382 0.00272849 -0.307496 -0.273433 9.87381
0.475 -0.0031049 -0.011645 0.00597048 -0.23097 0.00434951 9.90795
0.476 -0.00223868 0.0152936 -0.010739 -0.275156 0.0716573 9.89577
0.477 -0.000937875 -0.000326345 -0.00425833 0.14018 -0.174027 9.66016
0.478 -0.0102025 0.0307277 -0.00996433 -0.182369 0.00437174 10.0083
0.479 0.0189465 0.00996282 -0.00131027 -0.272815 -0.236073 9.65353
0.48 -0.0238097 -0.00277247 -0.000216359 -0.307256 -0.146931 10.0703
0.481 -0.0150595 0.00443767 0.0172872 -0.162904 -0.179626 9.78969
0.482 -0.0062136 -0.000511478 -0.0112649 -0.190652 -0.214696 9.85018
0.483 0.00203959 0.0176004 0.000451414 -0.396602 -0.452475 9.85867
0.484 -0.00720534 0.000860953 -0.00464657 -0.328694 -0.237449 10.0947
0.485 -0.0022416 -0.0020436 -0.0121328 -0.364033 -0.213048 10.0329
0.49 -0.0151996 0.0063551 -0.00512618 -0.254091 -0.159068 10.0645
0.491 -0.00113575 0.0226735 0.0016036 0.0155789 -0.0338162 9.93618
0.492 0.00624083 0.0125222 -0.0256741 -0.229056 0.0268756 9.78221
0.493 0.00202013 0.0173837 0.00925216 -0.359208 0.0562798 9.70325
0.494 0.000917839 0.00319749 0.0101351 -0.277761 -0.201912 10.1098
0.495 0.00202038 0.0101631 -0.0012383 -0.187076 -0.0551297 10.0139
0.496 0.00100772 0.00340231 -0.0287082 -0.124815 -0.357077 10.0295
0.497 -0.00385599 0.0176847 0.00329317 0.120196 -0.363873 9.97613
0.498 0.017803 0.0105767 0.00355216 -0.263751 -0.279116 9.93562
0.499 0.00969905 0.0136431 -0.0135147 -0.189952 -0.157732 9.96936
0.5 -0.00488153 0.00657219 -0.00117247 -0.326915 -0.089347 9.926
0.501 0.00192802 0.0230035 -0.00232267 -0.193967 -0.294604 9.84179
0.502 -0.0161657 0.0127836 0.000919143 -0.313167 -0.0774863 10.116
0.503 0.00273399 0.0166248 0.0108319 -0.313238 -0.0140377 9.67645
0.504 0.000132651 0.000323666 0.00291944 -0.13247 -0.157151 10.1506
0.505 -0.00196251 0.0235274 -0.0123875 -0.285469 0.0193366 9.83927
0.506 0.0116901 0.0192072 0.000507704 -0.257958 0.0175651 9.88852
0.507 -0.00214793 0.024702 0.00782079 -0.253623 -0.325521 9.99325
0.508 -0.00320758 0.0121137 0.0159691 -0.122801 -0.245504 9.91465
0.509 -0.00506089 0.00622467 -8.14461e-05 -0.193212 -0.00312703 9.83469
0.51 -0.00767773 -0.00781556 0.0154287 -0.0992626 -0.357278 9.88877
0.511 -0.00323744 0.000858475 0.0021283 -0.315087 -0.114259 9.82596
0.512 0.00647401 0.0176062 -0.0111057 -0.047693 -0.285548 9.85585
0.513 -0.0198275 0.00370757 0.00303972 -0.220528 -0.297381 10.0076
0.514 0.000715232 0.000946639 0.00779655 -0.277878 -0.0635767 9.7654
0.515 0.00524583 0.0269462 0.00083053 -0.332096 -0.210675 10.068
0.516 0.00754713 0.0124219 -0.00769868 -0.386462 -0.131836 9.7649
0.517 -0.00310706 0.011074 0.00259001 -0.43552 -0.202567 9.91894
0.518 0.0192188 0.0203352 -0.00558644 -0.309944 -0.0752548 9.71269
0.519 -0.0211413 0.0171245 0.00710746 -0.233644 -0.12189 9.77354
0.52 0.00211053 0.0147634 0.00019768 -0.164137 -0.0435576 9.89293
0.521 -0.0171931 -0.00597964 -0.0132902 -0.192979 -0.179261 9.88132
0.522 0.0109297 0.0189313 -0.00750629 0.0317226 -0.164689 9.96338
0.523 -6.0847e-06 0.00889221 0.0190469 -0.306227 -0.101647 9.96547
0.524 0.0049123 0.00377529 0.00252297 -0.152967 -0.130866 9.73796
0.525 -0.0175755 0.0169256 0.0103067 -0.165369 -0.447896 9.97023
0.526 0.0109956 0.0163684 0.00144354 -0.214245 -0.357079 9.90081
0.527 0.00292743 0.00565747 -0.0146282 -0.209552 -0.139412 9.88789
0.528 -0.0111473 0.00659483 -0.0137707 -0.117745 -0.211707 9.9774
0.529 -0.0160693 -0.0152687 -0.02347 -0.336536 -0.109821 9.97575
0.53 -0.0169219 0.0120774 -0.0296094 -0.331576 -0.0970681 9.7368
0.531 0.00103602 0.0145321 -0.00778392 -0.197775 -0.162285 9.86276
0.532 0.0156688 0.0030803 0.0105684 -0.136456 -0.266751 9.842
0.533 0.00108262 -0.0115621 0.00706621 -0.372338 -0.402902 9.93393
0.534 0.00661848 -0.00376445 0.0141412 -0.101226 -0.367986 9.73885
0.535 -0.02184 0.0242214 0.0114319 -0.319624 -0.0994269 9.88853
0.536 0.00665966 0.00507179 -0.00100769 -0.355935 -0.0469512 10.0017
0.537 -0.00747793 0.00893235 0.0112502 -0.497578 -0.0679717 10.005
0.538 -0.00237797 0.0175618 0.00232976 -0.388779 -0.217025 10.0616
0.539 0.0221608 0.0143733 0.00701625 -0.181898 -0.0965281 9.69779
0.54 0.0217076 0.0012412 0.00317829 -0.196417 -0.261108 9.86701
0.541 -0.0227262 0.00153914 0.0103946 -0.117857 -0.294395 9.85094
0.542 -0.000730472 0.0159335 0.00533147 -0.171108 -0.14163 10.0408
0.543 -0.0128058 0.00549603 -0.00153122 -0.296094 -0.0981676 9.91788
0.544 0.0069505 -0.00602808 -0.0211579 -0.195311 -0.0246815 9.82217
0.545 -0.00107434 0.00700288 -0.000888758 -0.517653 -0.337408 10.0195
0.546 0.00966131 0.0213001 0.00370661 -0.443401 -0.208037 9.70415
0.547 -0.0149529 0.00590633 0.00306425 -0.323412 -0.219378 9.84399
0.548 -0.00843035 0.00905681 -0.00876937 -0.256911 -0.339564 9.81568
0.549 -0.00508523 -0.00866418 -0.0117014 -0.150718 -0.404982 9.82235
0.55 0.00280866 0.00211922 0.010169 -0.148809 -0.180745 9.79206
0.551 0.00362009 0.0271547 -0.013588 0.0764279 -0.180177 9.87309
0.552 -0.00840918 0.00622027 -0.00649066 -0.0514272 -0.442832 9.85624
0.553 0.013174 -0.0140358 0.0109763 -0.242622 -0.133611 10.0862
0.554 0.00330161 0.0148229 0.0100417 -0.275541 -0.196193 10.0463
0.555 0.019674 0.00852632 0.00577506 -0.143143 -0.182503 10.0761
0.556 -0.0226878 0.0163123 -0.00590667 -0.187933 -0.144007 10.019
0.557 -0.00643264 -0.0228011 0.00750796 -0.341636 -0.268076 9.87689
0.558 0.00985205 -0.00780645 -0.0266035 -0.243135 0.0787417 10.1915
0.559 0.00409428 -0.00308305 0.0121896 -0.438174 -0.185305 9.72833
0.56 -0.00997431 -0.00445798 -0.000522981 -0.509285 0.0381807 9.68305
0.561 -0.0104689 0.0100285 -0.00594955 -0.252082 -0.320627 9.89113
0.562 -0.0139926 0.00930742 -0.00466718 -0.326449 0.12256 9.99561
0.563 -0.00854167 0.0215609 0.00527575 -0.289384 -0.190118 9.86854
0.564 -0.0103783 -0.00206229 0.000232382 -0.108507 -0.389217 9.66281
0.565 0.00649528 0.0161045 0.0013049 -0.142437 -0.380957 9.73523
0.566 -0.000815212 0.0036646 0.00415381 -0.275737 0.00593964 9.99233
0.567 -0.0142317 0.0125551 0.0033254 -0.373785 -0.085661 9.97211
0.568 -0.00612971 0.00267466 0.00366098 -0.572974 -0.105723 9.97182
0.576 -0.00332911 0.0126063 0.0175378 -0.196291 -0.329162 9.74463
0.577 -0.0159661 0.0118669 0.00560846 -0.230352 -0.192403 9.92535
0.578 -0.0227715 -0.00176625 0.0217194 -0.15302 -0.0575133 9.8423
0.579 -0.0084838 -0.00183878 0.00441796 -0.201503 -0.128978 9.76976
0.58 -0.0108373 0.0231847 0.00670286 -0.395659 -0.239782 9.76506
0.581 0.0019111 -0.00444094 0.0139898 -0.153116 -0.306413 9.8856
0.582 0.012064 -0.00455258 0.0135253 -0.282862 -0.0424698 9.96109
0.583 0.00229192 -0.0150124 -0.000217866 -0.242487 -0.161479 9.96861
0.584 -0.00597562 0.0250897 0.00255258 -0.0857778 -0.157936 9.97392
0.585 -0.00840891 0.00920573 -0.0146994 -0.0596872 -0.180656 10.0768
0.586 -0.0109336 -0.00774136 0.00160716 -0.180575 -0.256793 9.87837
0.587 -0.0117429 0.018973 0.00540401 -0.146389 0.00906109 9.92661
0.588 0.0118951 0.0121736 0.00814031 -0.10144 -0.281946 9.8322
0.589 -0.00824894 0.00546022 0.00129357 -0.234147 -0.414995 9.66516
0.59 0.00545294 0.0150746 0.00959882 -0.0355445 -0.142423 10.0561
0.591 0.000637189 -0.000724347 -0.00404469 -0.274192 -0.182181 9.93598
0.592 -0.0043169 -0.00300166 0.0080399 -0.125669 -0.0443389 9.82828
0.593 -0.0121568 0.0254297 -0.0131218 -0.105738 -0.00492396 10.0468
0.594 0.00669461 0.0155043 0.0113082 -0.336163 -0.0288778 9.7848
0.595 -0.00255474 0.0190077 0.0168698 -0.264515 -0.291208 9.80235
0.596 0.0135585 -0.0171578 0.00145581 -0.319651 -0.1947 9.66014
0.597 -0.0147731 -0.00119548 -0.0138027 -0.486297 -0.432009 9.74636
0.598 -0.0133651 -0.0203961 -0.011631 -0.139495 -0.271086 9.87349
0.599 -0.0129778 0.0219262 0.00699059 -0.29767 -0.169885 9.64902
0.6 -0.00536551 0.0240536 -0.00612022 -0.243943 -0.0364095 9.85434
0.601 -0.00874292 0.021565 -0.00208388 -0.256906 -0.264429 9.76865
0.602 0.0213799 -0.00275524 0.0209885 -0.265258 0.00877824 9.74138
0.603 0.0298374 -0.00172579 -0.00808057 -0.471608 -0.39044 9.88529
0.604 0.000866898 0.00733862 -0.0179414 -0.269005 -0.159834 9.67439
0.605 -0.00131536 -0.00124786 -0.011651 -0.162434 -0.252901 10.0234
0.606 -0.00223155 0.0228273 -0.0122297 -0.179012 -0.0708202 9.63897
0.607 -0.0117206 0.0149356 0.000475873 -0.109262 -0.202627 9.76773
0.608 -0.0057585 0.00824921 0.00986082 -0.292402 -0.114129 9.9391
0.609 -0.0200732 0.0150842 -0.00298645 -0.0485369 -0.0499367 9.64944
0.61 0.00531851 0.0183086 0.00656534 -0.0492034 -0.207461 9.89972
0.611 0.0169483 -0.00484187 -0.0109786 -0.185109 -0.148115 9.71806
0.612 -0.0185331 -0.00101033 -0.00618543 -0.130988 -0.180308 9.83724
0.613 0.00445534 -0.0126868 -0.00833168 -0.356786 -0.252427 9.66369
0.614 -0.0120331 0.0095561 0.0165089 -0.211004 0.0160669 9.76988
0.615 -0.00836758 0.0182436 -0.00427554 0.0420331 -0.0541161 9.79582
0.616 -0.00579988 0.00234681 0.0139724 -0.13283 -0.0964936 9.83381
0.617 -0.00167644 0.0218272 0.0155137 -0.0454375 -0.161199 9.9322
0.618 0.0105034 0.0221055 -0.00238433 -0.186074 -0.125665 9.79759
0.619 0.00618336 -0.00213261 0.0137815 -0.193513 -0.19752 9.94296
0.621 -0.00138589 0.000228629 -0.00182373 -0.386989 0.0213947 9.71605
0.622 -0.00708042 -0.00170958 0.0121324 -0.0836763 -0.125621 9.77916
0.623 0.018626 0.005486 0.000859666 -0.339948 -0.250117 10.0092
0.624 0.0061171 0.0113972 0.00639847 -0.160601 -0.15942 9.95083
0.625 -0.00317537 0.00418345 0.00934421 -0.167105 -0.104838 9.85556
0.626 0.0169056 0.00412187 0.00571464 -0.204291 0.0799604 9.91235
0.627 -0.0111445 0.026678 0.00472934 -0.0677564 -0.0784698 9.86727
0.628 -0.00268045 0.00697749 0.0150171 -0.275942 -0.432643 9.94857
0.629 0.01676 0.00903324 -0.00871941 -0.266279 -0.224707 9.84819
0.63 0.0336428 -0.0212528 -0.00869002 -0.439665 -0.313136 9.96667
0.631 -0.00784666 0.0135863 -0.00491368 -0.259018 -0.256769 10.1339
0.632 -0.00675994 0.0252209 0.0201981 -0.000551221 -0.157241 10.0543
0.633 0.0132394 0.0140746 -0.0110792 -0.155731 0.00133165 9.87109
0.634 0.0156524 -0.0115604 -0.00304461 -0.305065 -0.0153198 9.62968
0.635 0.00266342 0.00393732 0.0163347 -0.384713 -0.18026 9.86929
0.636 0.00734294 0.0113918 0.00875317 -0.255342 -0.130502 9.65327
0.637 -0.0189785 0.00792037 -0.0169613 -0.246535 -0.150207 10.1057
0.638 -0.00372294 0.0210955 -0.0161654 -0.201699 -0.287159 9.75181
0.639 -0.00205056 -0.00343647 -0.00712289 -0.211779 0.0179292 9.76355
0.64 -0.00629202 0.00408009 -0.00214162 -0.514327 -0.0637219 9.92669
0.641 -0.0148905 -0.000304717 -0.00756143 -0.342555 -0.0647162 9.82456
0.642 0.00273673 -0.00879801 0.028238 -0.377068 -0.244525 10.029
0.643 -0.00896526 0.0127836 0.00998741 -0.112419 -0.182195 10.0315
0.644 0.0110477 0.00961091 0.002048 -0.314024 -0.220126 9.70096
0.645 -3.55789e-05 0.00332334 0.0134133 -0.214742 -0.265646 9.92596
0.646 -0.00593723 0.00298262 -0.00153604 -0.593757 -0.0413893 10.0571
0.647 -0.00313919 0.00907007 -0.00502804 -0.141985 0.146751 9.84838
0.648 -0.00268848 0.0234644 0.0127501 -0.196439 -0.306068 9.98886
0.649 -0.0140215 0.0159251 0.00914156 -0.142482 -0.323878 9.77245
0.65 -0.0053049 0.00208916 -0.000698061 -0.292363 -0.0830215 10.0014
0.651 0.0112408 0.000974472 0.0225248 -0.150622 -0.25026 9.85604
0.652 0.0102382 0.0139979 -0.0146947 -0.142751 -0.311136 9.84703
0.653 0.00257797 0.0198967 0.00606515 -0.332115 -0.205006 9.85536
0.654 -0.0141358 -0.00364905 -0.0110943 -0.170468 -0.141441 9.7238
0.655 0.00452913 -0.00292495 0.00447381 -0.288093 -0.147142 9.6766
0.656 0.00927214 0.0201542 0.00058481 -0.109591 -0.256621 10.0004
0.657 -0.0124698 0.00280488 0.024134 -0.244624 -0.231862 9.71445
0.658 -0.0172568 0.0103746 -0.00463702 -0.0492012 -0.281527 10.0165
0.659 0.0322673 -0.00255542 0.00243139 -0.598006 -0.246862 9.82174
0.661 -0.0229767 0.0166006 -4.52122e-06 -0.336369 -0.30131 9.81926
0.662 -0.0119521 0.010861 -0.0104857 -0.287436 -0.13493 9.82548
0.663 -0.00400466 0.0132663 0.0239624 -0.184462 -0.139195 9.95378
0.664 -0.00201748 0.0157793 -0.0087419 -0.11549 -0.342253 9.93249
0.665 -0.00204359 -0.00736842 -0.00813034 -0.0271512 -0.141199 9.8276
0.666 -0.00421826 -0.00028963 -5.38383e-05 -0.157028 -0.170009 9.95671
0.667 -0.0147729 -0.00794137 -0.000642381 -0.0914821 -0.211359 10.0054
0.668 -0.00786721 0.0110282 0.00279026 -0.0737091 -0.0987092 9.92999
0.669 -0.0222934 0.00378971 0.0112924 -0.281137 -0.0406007 9.76732
0.67 -0.00382759 0.0174547 -0.00337924 -0.026797 -0.0844732 9.8267
0.671 -0.00186143 0.0255437 0.0155452 -0.360618 -0.107518 9.89668
0.672 -0.00357624 0.00961547 0.010014 -0.291485 -0.223213 9.89316
0.673 -0.0187801 -0.0007601 -0.0104984 -0.152727 -0.150446 9.9971
0.674 -0.00338297 0.0137926 -0.0133114 -0.347173 -0.395728 9.78694
0.676 -0.023652 0.0194336 -0.00263822 -0.258431 -0.196791 9.91028
0.677 -0.0119944 0.0128956 0.00379638 -0.235239 -0.134884 9.98846
0.678 0.0109844 -0.0183739 0.0109055 -0.00869084 -0.193624 9.94678
0.679 -0.00537705 0.00960273 0.0201268 -0.292708 -0.193681 9.88958
0.68 -0.0197966 -0.00197297 0.0120434 -0.38118 -0.138475 9.81946
0.681 -0.00340317 -0.0117994 0.00997086 -0.203159 -0.11271 9.87658
0.682 -0.0186244 -0.00218841 -0.0118262 -0.247984 -0.0650922 9.85295
0.683 0.00536073 0.0301427 0.00833986 -0.278856 -0.240539 9.79175
0.684 0.000197306 -0.00324133 0.0200622 -0.123392 -0.516731 9.62727
0.685 -0.00716081 0.0100517 0.0047186 -0.459041 -0.244505 9.75165
0.686 -0.000756108 0.00656489 -0.00871725 -0.366549 -0.00246362 9.71378
0.687 -0.0195608 -0.016308 0.0115024 -0.139265 -0.282038 9.9688
0.688 -0.0109575 0.00670611 7.77235e-05 -0.179706 -0.0177177 10.0748
0.689 -0.0116826 0.0158002 0.00179589 -0.160862 -0.0275871 9.72566
0.69 -0.00204884 0.00353716 0.00232705 -0.224789 -0.0690462 9.49085
0.691 -0.0176074 -0.00628482 -0.0109214 -0.25116 -0.420277 9.99761
0.692 -0.00996384 0.00522179 0.000804074 -0.305846 -0.371785 9.85288
0.693 0.0113582 0.0113816 -0.00960409 -0.0480785 -0.298452 10.0754
0.694 -0.0096301 -0.00386376 -0.00792884 -0.42461 -0.252208 9.85779
0.695 0.00888239 -0.00520206 0.00135852 -0.0645391 -0.0646711 10.0976
0.696 0.004137 -0.00666578 -0.020602 -0.357723 -0.225184 9.98484
0.697 -0.0217063 0.0165841 0.0219824 -0.0572686 -0.279641 9.91599
0.698 -0.00131181 0.0079491 -0.00557919 -0.158719 -0.202464 9.76292
0.699 -0.00833577 0.0217999 0.00921239 -0.16031 -0.411607 9.82533
0.7 0.0148327 0.0191007 -0.00535385 0.0131999 -0.234085 9.94057
0.701 0.000981177 -0.00827547 -0.00628644 -0.178692 -0.204473 10.0171
0.702 -0.00775084 0.00664089 -0.00471687 -0.215348 -0.252701 9.90354
0.703 -0.0175261 0.0301184 0.00544719 -0.345563 -0.152393 9.82379
0.704 -0.00544524 -0.00200742 0.00707901 -0.268121 -0.273549 9.67842
0.705 -0.0112156 0.00949472 -0.00495823 -0.0259601 -0.248075 9.79415
0.706 -0.00602069 0.00487336 0.00555012 -0.190424 -0.345388 9.74274
0.707 -0.010524 0.000933321 0.00861473 -0.153056 -0.369764 9.81351
0.708 0.0157898 0.00756203 0.00886132 -0.0547377 -0.252529 10.0427
0.709 -0.0139245 -0.0103924 -0.0083337 0.0390141 -0.137137 9.90297
0.71 -0.00677625 0.00537579 -0.00437281 -0.316984 -0.226025 9.94104
0.711 0.0310053 -0.00124896 -0.0149385 -0.144066 0.0101737 10.016
0.712 -0.00657679 0.0172558 -0.00351632 -0.241616 -0.295174 9.92444
0.713 -0.0184583 -0.00333554 -0.00689754 -0.0585556 -0.337652 9.93447
0.714 -0.00921748 0.015625 -0.00118267 0.0141646 -0.382434 9.98063
0.715 -0.00881024 -0.00286834 -0.014061 -0.0843691 -0.152469 9.90675
0.716 -0.0106952 0.00927438 -0.0151321 -0.376453 -0.164968 9.8627
0.717 0.00185478 -0.00543743 -0.00800286 -0.0704135 -0.228137 10.0164
0.718 0.0193001 0.00507785 0.002453 -0.248349 -0.290365 9.75738
0.719 0.00533628 0.0185042 -0.000791671 -0.278779 -0.0295917 9.64674
0.72 -0.00888612 0.00286432 -0.00846395 -0.391556 -0.13479 9.73656
0.721 0.00892696 0.0117548 0.0136546 -0.153479 -0.369419 9.94237
0.722 0.00801445 2.84071e-05 -0.00506299 -0.321971 0.0060649 9.76814
0.723 -0.0126295 0.0086654 0.0239488 -0.199144 -0.295972 10.0866
0.724 -0.0148589 0.00377478 0.00200451 -0.300569 -0.262375 9.7855
0.725 0.00154484 0.0161727 -0.00572718 -0.340387 -0.00532145 9.98033
0.726 0.00672331 0.00190231 -0.01577 -0.298025 -0.260134 9.61175
0.727 -0.00389565 0.0264531 -0.0125092 -0.192287 -0.319697 9.95047
0.728 -0.00816422 0.00741002 -0.0152536 -0.299555 -0.184247 9.54174
0.729 -0.00804684 0.0222323 0.0149776 -0.0202417 -0.267543 10.0377
0.73 0.00906659 0.0114164 -0.0237301 -0.44993 -0.206021 9.89862
0.731 -0.0103175 0.00140725 -0.00786352 -0.178527 -0.0904916 9.81283
0.732 0.0165883 -0.00795008 -0.0154405 0.0649637 -0.088836 9.9744
0.733 0.0118042 0.0170874 -0.005827 0.000390594 -0.295531 10.0295
0.734 -0.00356141 0.00569044 0.0103918 -0.15329 -0.162102 9.84455
0.735 -0.00471638 0.00836389 0.0144023 -0.11132 -0.108043 10.045
0.736 0.00426224 0.0107529 -0.0231931 -0.0275196 -0.301838 9.72218
0.737 0.0197521 0.0288117 -0.00178119 -0.21334 -0.359202 9.84946
0.738 -0.0232952 -0.00502235 -0.020094 -0.220865 -0.203637 9.93737
0.739 -0.0029689 0.0111481 0.00833143 -0.421259 -0.0224171 9.91845
0.74 -0.00286976 0.00870326 0.00864213 -0.383643 -0.151565 9.71305
0.741 -0.00708037 0.0165786 -0.012148 -0.436976 -0.0337822 9.75717
0.742 -0.0117095 0.00235264 0.0100208 -0.370244 -0.237392 9.86211
0.743 -0.00944242 0.01319 0.0132557 -0.458583 -0.16049 9.77188
0.744 -0.0114577 0.00430898 -0.0125321 -0.38202 0.021185 9.71763
0.745 -0.00715722 0.0183586 -0.0242219 -0.262209 -0.105961 9.88778
0.746 -0.00265061 0.00171436 -0.00584024 -0.175024 -0.281011 9.75883
0.747 0.00759846 0.00386732 0.000434964 -0.378922 -0.337822 9.85992
0.748 0.0150127 0.00925025 -0.0205805 -0.108247 -0.187241 9.86943
0.749 -0.00160868 0.0108973 -0.0133797 -0.318542 -0.301799 9.75769
0.75 -0.0107875 0.0282778 0.000695361 -0.113074 -0.332279 9.89409
0.751 -0.0176395 -0.0175597 -0.0148676 -0.413853 -0.019707 9.76628
0.752 1.87629e-05 0.000216417 -0.00110144 -0.282029 -0.161228 9.74397
0.753 0.00602942 0.00476961 0.00213767 -0.163922 -0.53871 9.8226
0.754 -0.00429254 0.000514703 -0.000704117 -0.243499 -0.201335 9.76408
0.755 -0.00905901 0.00404248 -0.0227719 -0.162622 -0.155102 9.80457
0.756 0.0115642 0.00207942 0.00610408 -0.141824 -0.103982 9.92777
0.757 -0.014286 0.000724896 0.000428134 -0.56084 0.0695542 9.82857
0.758 0.00789428 -0.00303061 -0.0125214 -0.379303 -0.0660151 9.67029
0.759 -0.00863159 0.00208256 0.00478388 -0.309738 -0.321646 9.7336
0.76 0.00937715 -0.0204421 -0.00678703 -0.0102083 -0.303844 9.79646
0.761 0.0144204 0.00119393 0.0179892 -0.265958 -0.414043 9.8241
0.762 0.0118164 0.00305614 -0.00164828 -0.235401 -0.134705 10.1008
0.763 -0.00332529 0.000158383 0.00946168 -0.181341 -0.00945217 9.75225
0.764 0.000344333 0.00274867 0.0158624 -0.227275 -0.353097 9.78822
0.765 -0.0103706 0.00763379 -0.0160844 -0.2759 -0.0620574 9.88562
0.766 -0.00397402 -0.0153533 -0.00585337 -0.229542 -0.00747027 9.93432
0.767 -0.00733759 -0.0134153 -0.00138536 -0.161313 -0.114404 9.78477
0.768 0.00653447 -0.00461496 0.00446863 -0.283506 -0.375638 9.84613
0.769 -0.0174071 0.0105679 0.0086023 -0.178399 -0.163577 9.8582
0.77 0.00732339 -0.000139641 0.00497947 -0.121972 0.0167158 10.0768
0.771 -0.0262497 -0.00557316 0.0245161 -0.119144 -0.323879 9.99095
0.772 -0.00851804 -0.0109936 -0.00751971 -0.388849 -0.0748894 9.89723
0.775 0.00594757 0.0106802 -0.00174434 -0.278146 -0.257304 9.82493
0.776 -0.00326425 0.00381663 -0.00955643 -0.306617 -0.0174512 9.87069
0.777 0.0153924 0.00687949 -0.0107834 -0.309247 -0.363574 9.7886
0.778 -0.00188622 0.00884374 0.0109034 -0.577271 -0.422926 9.83114
0.779 -0.0228896 0.026955 0.00395441 -0.366429 -0.150433 9.8459
0.78 -0.00698086 0.0167781 -0.00400581 -0.25625 -0.124383 9.6321
0.781 6.64065e-05 -0.0103292 -0.00486557 -0.497689 0.0750483 9.7074
0.782 0.000511773 0.0193433 0.00230694 -0.245094 -0.205203 9.74192
0.783 -0.00693726 0.0149005 0.00392477 -0.218924 -0.162441 9.95018
0.784 0.00127575 0.00652971 0.014701 -0.0546749 -0.202867 9.75657
0.785 -0.0212853 -0.00365755 -0.00720957 -0.330693 0.142558 10.2121
0.786 -0.000657201 0.0234417 0.00205659 -0.160397 -0.364081 10.0066
0.787 -0.00567094 0.00518534 -0.0151483 -0.305643 -0.315861 9.90431
0.788 -0.0145783 -0.0108281 -0.0100157 -0.465186 -0.192649 9.83376
0.789 0.00817085 0.00443332 -0.0134867 -0.17172 -0.147808 9.95313
0.79 0.00668401 0.0027786 0.00496751 -0.26396 -0.32 9.75051
0.791 0.0153959 0.0179762 -0.0113525 -0.258603 -0.309762 10.0055
0.792 0.008998 0.0173791 -0.00104656 -0.159926 -0.0887926 9.81646
0.793 -0.00524914 0.0153055 0.00158237 -0.253263 -0.0848504 9.87616
0.794 -0.0107445 0.00194721 -0.0131232 -0.179392 -0.25502 9.90882
0.795 -0.00218994 0.0140074 -0.00479715 -0.175606 -0.147576 9.70273
0.796 -0.00438521 0.0321222 -0.0106905 -0.044572 -0.0645456 9.85287
0.797 0.0320886 0.0035212 -0.000812056 -0.350773 0.0193438 10.0338
0.798 -0.00683123 0.00721448 -0.0154806 -0.174768 -0.111186 9.81777
0.799 -0.0135148 0.00145614 -0.00429907 -0.457138 -0.0289058 10.003
0.8 -0.00836513 0.0291014 -0.00789469 -0.267434 0.0418009 9.82375
0.801 -0.00984441 -0.00317798 -0.0231698 -0.129316 -0.151257 9.89324
0.802 0.000128562 -0.00547598 0.000584739 -0.24425 -0.333575 9.86221
0.803 0.0122566 0.0177789 0.00593641 -0.260128 -0.538984 9.80569
0.804 -0.0191694 0.022897 0.00832807 -0.19773 0.0714511 9.75622
0.805 -0.000161059 -0.00288894 -0.000570817 -0.251445 -0.0264615 10.1915
0.807 -0.0120637 -0.000388845 -0.0138371 -0.238861 -0.177218 9.67158
0.808 -0.0156001 -0.0132892 -0.0122844 -0.198997 -0.304606 9.86104
0.809 -0.0103239 0.0305618 -0.00283047 -0.354371 -0.0494962 10.1352
0.81 -0.0106615 0.00203772 0.0105689 -0.374018 -0.151549 10.0289
0.811 -0.00855347 0.00244961 0.00290093 -0.414395 -0.156444 10.027
0.812 0.0153948 0.000357972 -0.012155 -0.385143 -0.135047 9.82647
0.813 0.000514721 -0.00129879 -0.00855223 -0.272035 -0.303236 9.7644
0.814 -0.0144089 0.0137285 0.00130258 -0.29498 -0.276501 9.9764
0.815 0.00473145 0.00542183 0.0101728 -0.402404 -0.252584 10.0437
0.816 0.000349561 -0.00642286 0.00293458 -0.214202 -0.0874923 9.80678
0.817 -0.00221236 5.82785e-05 -0.0105905 -0.247984 -0.0700112 9.74984
0.818 -0.0115875 -0.0196459 0.00184479 -0.255157 -0.441597 9.98228
0.819 -0.00219399 0.0189243 -0.00104343 -0.312725 -0.186509 9.76957
0.82 -0.0143982 0.00856861 0.0121964 -0.325525 -0.394739 9.75478
0.821 -0.0125011 0.026702 -0.00815003 -0.159849 -0.130451 9.98319
0.822 -0.0251797 0.00523541 0.0159897 -0.195466 -0.0534946 9.81306
0.823 0.00984488 0.00549874 0.00717111 -0.0543103 -0.152124 9.81184
0.824 0.00552172 -0.00435483 -0.00089875 -0.139937 -0.11924 9.85706
0.825 0.0230313 -0.00871571 0.00156186 -0.265609 0.0361474 9.95606
0.826 -0.0202667 -0.0137134 0.00823384 -0.352993 -0.169598 9.96104
0.827 0.0134801 0.00947825 -0.0129515 -0.0975342 -0.278316 9.77427
0.828 -0.00388344 0.00943289 0.0136725 -0.187891 -0.0948621 9.75804
0.829 0.0114892 0.00381986 0.00346388 -0.422349 -0.419975 10.0135
0.83 0.0179537 0.00576214 -0.00230036 -0.428401 -0.0599373 9.79143
0.831 0.00694821 0.00655429 -0.00165442 -0.0967461 -0.111474 9.68285
0.832 0.00694875 -0.0146785 -0.00447474 -0.051725 -0.0314213 10.0577
0.833 0.0148189 0.00279415 0.000750543 -0.149991 -0.111562 9.71444
0.834 -0.0147715 0.0171796 -0.0187725 -0.229774 -0.209411 9.84841
0.835 -0.00425473 0.0141866 0.00239609 -0.434028 -0.13918 9.99967
0.836 -0.0120697 0.0226769 -0.00704292 -0.360375 -0.0703463 9.72786
0.837 -0.0144642 -0.000699143 0.00564832 -0.18003 -0.248744 9.6882
0.838 0.0117209 0.0157199 -0.0207635 -0.0572761 -0.152918 9.75773
0.839 -0.00390184 0.0120465 0.0353772 -0.034237 -0.164247 9.6359
0.84 -0.00699686 0.0118059 -0.00630476 -0.267103 -0.0139502 9.82523
0.843 -0.0130737 -0.00171926 -0.000208229 -0.219274 -0.0576419 9.94687
0.844 -0.0251686 0.000221296 0.00933041 -0.257668 -0.377366 9.65011
0.845 -0.00890818 -0.0161188 -0.0137466 -0.348252 -0.238357 9.91461
0.846 -0.0217477 0.0220477 0.0149478 -0.245207 -0.113723 9.87502
0.847 -0.00697322 -0.019354 0.00915008 -0.0833816 -0.36467 9.96994
0.848 -0.00132259 0.00702501 -0.00123101 -0.186887 0.00134105 9.97649
0.849 0.00865418 0.00568764 -0.0125321 -0.130428 -0.168664 9.77077
0.85 0.0167685 -0.00683996 0.0137251 -0.375992 -0.0728366 9.84195
0.851 0.0173444 -0.0128035 -0.00490718 0.0165591 -0.00083169 9.72813
0.852 -0.000120902 0.0128773 0.00431293 -0.299625 -0.199972 10.0012
0.853 -0.000926564 0.00462184 0.00172952 -0.208621 -0.113359 10.0317
0.854 -0.00380715 0.0207261 0.0135582 -0.249817 -0.0140349 9.75145
0.855 0.000125688 0.00398809 -0.0191364 -0.355798 -0.242203 9.79863
0.856 -0.0126998 -0.00822411 0.00546705 -0.23511 -0.37999 9.89507
0.857 -0.000196111 0.00674187 -0.00986192 -0.18243 -0.21277 9.92618
0.858 -0.00964441 0.00652054 -0.00197176 -0.278212 -0.0695465 9.8637
0.859 0.00830788 0.0131618 0.00585471 -0.465024 -0.331585 9.88883
0.86 -0.00769601 0.0210976 -0.00923784 -0.0520161 -0.0994653 10.0873
0.861 0.00169357 0.00471697 -0.00363045 -0.314929 -0.249572 9.9209
0.862 -0.00716793 -0.00433279 0.00334675 -0.427452 -0.107304 9.78491
0.863 -0.0102386 -0.00346162 -0.00412173 -0.227784 -0.0622241 9.88311
0.864 -0.0013874 0.00222563 0.00907385 -0.362315 -0.194724 9.81538
0.865 0.00983393 0.00524763 -0.00426887 -0.286905 -0.299195 10.0518
0.866 -0.0114707 0.0164147 -0.00271758 -0.269568 0.0356916 9.94365
0.867 0.0107863 0.0249606 -0.00326469 -0.446266 -0.280478 10.0861
0.868 -0.00741126 -0.0039947 -0.000727707 -0.293762 -0.154994 9.75829
0.869 -0.0134286 0.0117592 0.00393125 -0.109178 -0.246915 10.0169
0.87 0.0202426 0.0217665 0.0129154 -0.0158847 -0.140278 9.98449
0.871 -0.0175031 0.0108736 0.00884219 -0.272332 -0.134267 9.73633
0.872 0.00198364 0.0142751 0.00268269 -0.599904 -0.4292 10.1666
0.873 -0.0137187 0.0108899 0.00372282 -0.305129 -0.137968 10.0016
0.874 -0.00433781 -0.00175105 -0.0139856 -0.410103 -0.129509 9.80348
0.875 0.010509 -0.0108807 -0.00816781 0.00806602 -0.160548 9.8472
0.876 -0.0013805 -0.00147227 0.0202347 -0.172868 -0.167898 9.73855
0.877 -0.0188608 0.0115161 -0.00516498 -0.227736 -0.25844 9.84466
0.878 -0.00994639 0.0057239 -0.00258521 -0.372307 -0.107146 9.85018
0.879 -0.00254302 0.0120042 -0.00564967 -0.19666 -0.0879534 9.85948
0.88 -0.0119055 0.0134795 -0.00232552 -0.163892 -0.402096 9.74683
0.881 0.00523847 -0.0177759 0.00372664 -0.0971071 -0.211748 9.81265
0.882 -0.0113102 0.00270542 -0.00545852 -0.308923 -0.143852 9.91634
0.883 -0.0149279 0.0108373 0.00435245 -0.16062 -0.266562 9.83592
0.884 0.00166166 0.00271231 -0.00345375 -0.380308 -0.356804 9.92009
0.885 0.00411478 -0.00154827 -0.00887773 -0.289859 -0.200032 9.73093
0.886 0.0207976 0.0130795 -0.00127215 -0.219444 -0.279947 9.8499
0.887 0.011024 0.00143448 0.0141158 -0.179641 -0.19878 9.95039
0.888 -0.0110313 0.00621939 0.0105099 -0.148504 -0.0518686 9.94644
0.889 0.0113112 0.00541161 0.00544947 -0.413416 -0.180051 9.65412
0.89 -0.00705896 0.00237497 -0.0101881 -0.454745 -0.021146 9.98338
0.891 -0.00937541 -0.000520966 0.0106382 -0.375602 -0.207967 10.0653
0.892 0.00500596 0.014019 -0.0178391 -0.167091 -0.266792 9.75353
0.893 0.00802261 0.0139727 0.00108201 -0.266184 -0.144901 9.87638
0.894 -0.00142238 -0.00242267 -0.00538706 -0.205227 -0.186274 9.67676
0.895 -0.0132679 -0.00259471 -0.0123467 -0.152401 -0.321513 9.87388
0.896 0.00444151 0.0130732 0.00867275 -0.196157 -0.233631 9.8826
0.897 -0.00235295 0.00696203 0.0128828 -0.190876 -0.359522 9.48392
0.898 -0.00334932 0.0107395 -0.015171 -0.15081 -0.170038 9.62633
0.899 -0.00680352 0.0105148 -0.00447744 -0.219278 -0.167753 10.0566
0.9 -0.0105722 -0.0174229 -0.00913748 -0.33744 -0.0723958 9.94975
0.901 0.00609795 -0.00644725 0.00356581 -0.11803 -0.206953 9.83658
0.902 0.00382467 0.0139612 -0.0144787 -0.330963 -0.319882 9.97131
0.903 -0.00451531 -0.00682508 0.00408345 -0.451378 -0.187291 9.91236
0.904 -0.0064932 -0.0020067 0.0148921 -0.323687 -0.335087 9.7427
0.905 -0.00669553 0.0227482 -0.00454408 -0.227529 -0.0911683 9.90827
0.906 -0.000470835 -0.004925 0.00365427 0.0150422 -0.195557 9.8509
0.907 -0.00760392 0.0104157 0.00168916 -0.243103 -0.180679 9.58713
0.908 -0.00844411 -0.00507201 0.000508189 -0.0709835 -0.0525732 9.94587
0.909 0.0135513 0.0097796 0.0108957 -0.375695 -0.105271 9.60613
0.91 0.010506 -0.00192102 -0.0296666 -0.279379 -0.0182987 9.87114
0.911 0.00892549 -0.004007 -0.00761469 0.0519728 -0.0835135 9.92211
0.912 0.0150276 0.00794318 -0.000966394 -0.10624 -0.443535 9.95279
0.913 -0.00849653 0.0219764 -0.00465512 -0.414957 -0.162241 9.93564
0.914 -0.0160842 0.00939379 -0.000545 -0.47726 -0.266576 9.44901
0.915 0.00862107 0.00725157 -0.0119299 -0.364565 -0.286688 9.869
0.916 0.00197493 0.0181708 0.00414282 -0.101889 -0.216958 9.83443
0.917 -0.021662 -0.0127951 -0.000855609 -0.281119 -0.170488 9.72873
0.918 0.00209681 -0.00930099 0.00848418 -0.125965 -0.253743 9.82067
0.919 0.0136717 0.00946717 0.00541032 -0.218848 -0.193033 9.79899
0.92 -0.0039302 -0.00156592 -0.0101192 -0.23715 -0.205921 9.98198
0.921 -0.0159186 0.00516155 0.0120424 -0.181212 -0.126798 9.93337
0.922 -0.0193841 -0.0172395 -0.0141614 -0.236757 -0.20603 9.8328
0.923 -0.00267512 0.0177271 0.00115303 0.00668861 -0.00175239 9.92402
0.924 -0.00840017 0.00528291 0.0108472 -0.245918 -0.386088 10.1413
0.925 -0.00507059 -0.000921511 -0.0106644 -0.230814 -0.556363 9.83751
0.926 -0.0125417 0.00664621 -0.00130095 -0.159353 -0.213827 9.80239
0.927 -0.000289681 -0.00386228 0.00558539 -0.151806 -0.113881 9.95937
0.928 -0.0209255 -0.0098107 -0.0195984 -0.224346 -0.157077 9.95644
0.929 -0.0139928 0.0138847 0.0188041 -0.193975 -0.0969149 9.80112
0.93 0.00866533 0.00697497 -0.000907733 -0.226141 -0.0313345 9.97233
0.931 -0.000190757 0.00285222 -0.0183882 -0.134176 -0.204119 9.76409
0.932 -0.00782185 0.00795969 0.00359932 -0.217645 -0.126661 9.93709
0.933 -0.00435006 0.00189245 -0.00118997 -0.245166 -0.149932 10.0822
0.934 -0.000183692 0.0130459 0.0042958 -0.149071 -0.236679 9.66466
0.935 0.0116743 0.0206037 -0.0114545 -0.0124209 -0.150315 9.94977
0.937 0.015595 0.00239993 0.00945651 -0.224307 -0.0364302 9.83567
0.938 -0.0283666 -0.0189553 -0.0179091 -0.00184236 -0.142808 9.94202
0.939 -0.004327 0.0213014 0.00432232 -0.0665844 -0.0221159 9.78262
0.94 0.0115328 0.0097163 0.00849781 -0.329685 -0.229338 9.79748
0.941 0.0105777 0.0136674 -0.00346217 -0.295975 -0.141484 10.0236
0.942 0.00588642 0.0128648 0.0173424 -0.0753846 -0.419772 9.86297
0.943 -0.00802792 0.00562414 0.00910976 -0.235469 0.0801465 10.0572
0.944 0.00572881 0.0182053 -0.0105795 -0.213511 -0.0640909 9.88093
0.945 0.00476281 -0.00882547 -0.0136078 -0.40263 0.0147756 9.52709
0.946 -0.0117305 -0.00840871 -0.00753864 -0.303168 0.0760159 9.86689
0.947 3.04962e-06 0.010854 0.00185242 -0.270974 0.0640397 9.87915
0.948 -0.000316675 0.0160324 -0.00957886 -0.267771 -0.175519 9.9452
0.949 -0.00792774 -0.0194927 0.00128231 -0.357362 -0.260081 9.82477
0.95 -0.00380219 0.00801781 0.0185745 -0.377611 -0.172129 9.99278
0.951 0.000390493 0.0281462 -0.00146573 -0.428282 -0.416121 9.84573
0.952 -0.0127155 -0.00297268 -0.00747506 -0.221761 -0.16016 9.76027
0.953 -0.00873161 -0.00268593 0.00680372 -0.0780094 -0.279564 9.90746
0.954 0.00871918 -0.000718782 -0.00760555 -0.0948061 0.0102997 9.92804
0.955 0.00467384 0.00832737 0.0186603 -0.201853 -0.201825 9.87779
0.956 -0.0219099 -9.25386e-05 -0.0112112 -0.314856 -0.169823 9.87925
0.957 0.00321385 0.0139509 0.00750528 -0.209905 -0.14632 9.85342
0.958 -0.00707755 0.00707805 0.00124994 -0.300268 -0.123714 9.90509
0.959 -0.00779594 -0.00503299 0.00331821 -0.144418 -0.283546 9.76781
0.96 0.00998946 0.000778411 -0.00673144 -0.198517 -0.0564576 9.84435
0.961 0.0028945 0.0158702 0.0198631 -0.359036 -0.19863 9.80685
0.962 0.00105393 0.00128098 0.0218211 -0.0298901 -0.0899642 9.99852
0.963 0.0190227 -0.00215525 0.00747638 -0.338825 -0.169774 9.92364
0.964 -0.00291954 0.0122064 0.0029911 -0.0326624 -0.12064 10.111
0.965 -0.0132002 0.0016274 -0.0157107 -0.289772 -0.321256 9.71529
0.966 -0.00318041 -0.0032489 0.00495053 -0.167235 -0.0161602 9.87916
0.967 -0.00947287 0.00997814 -0.00877355 -0.124339 -0.165293 9.74216
0.968 -0.00145621 -0.00972026 -0.0238271 -0.515087 -0.445291 9.94464
0.969 0.0121574 0.016254 0.00358595 -0.185013 -0.39299 9.69184
0.97 -0.00495679 0.0129874 0.0142321 -0.125702 -0.327152 9.80561
0.971 -0.0231917 0.00826751 0.00291993 -0.248242 -0.0900795 10.0847
0.972 -0.0114503 -0.00321059 -0.00972072 -0.491014 -0.0187738 9.93493
0.973 -0.0258144 0.0194442 -0.00509661 -0.194665 -0.421882 9.80484
0.974 -0.00507518 -0.0064942 0.0086956 -0.211494 -0.106084 10.0346
0.975 -0.0014236 0.0117156 -0.00893739 -0.378989 -0.274404 9.93367
0.976 0.00706874 -0.00946543 0.00645479 -0.165505 -0.00145085 10.0405
0.977 0.00105366 0.026117 0.00520755 -0.455589 -0.0481223 9.87206
0.978 0.0161417 -0.000547027 -0.00211172 -0.2528 -0.148047 9.67857
0.979 -0.00970407 -0.000771379 -0.00400751 -0.221449 -0.217663 9.63541
0.98 0.00260514 0.00346527 -0.00964217 -0.414137 -0.0579319 9.7794
0.981 -0.00378136 0.00230375 0.00894288 -0.113329 -0.351746 9.7983
0.982 -0.0140295 -0.0072269 -0.0226412 -0.144648 -0.243241 10.0308
0.983 -0.0175643 0.00274241 -0.00589439 -0.221947 -0.127414 9.88958
0.984 0.0226658 0.0241832 0.0173686 -0.221016 -0.280461 10.0411
0.985 -0.00329979 0.0259488 0.00271993 -0.239138 -0.312041 9.95565
0.986 -0.00499442 0.000971292 0.00304609 -0.262515 -0.192404 9.74428
0.987 0.0164118 -0.0070049 0.00865307 -0.222714 -0.217432 9.88571
0.988 0.0208546 0.00986332 -0.0040439 -0.171285 -0.343936 9.92755
0.989 -0.00353858 0.0176782 0.0129777 -0.0224811 -0.252672 10.0457
0.99 0.0291458 0.00878114 -0.00658212 -0.170026 -0.231273 9.94522
0.991 -0.00821506 -0.00995186 -0.00600715 -0.272789 -0.0440556 9.80582
0.992 0.00199371 0.0175128 0.00501268 -0.352264 -0.161064 9.74917
0.993 -0.00976476 -0.000551689 0.00117189 -0.214578 -0.0617804 9.65224
0.994 0.00624928 0.0005118 0.000592631 -0.311892 -0.0850778 10.0359
0.995 0.00918514 0.0183907 -0.00727114 -0.287319 -0.135458 9.69999
0.996 0.00137965 -0.0067425 -0.00137267 -0.134555 -0.228124 9.92395
0.997 0.00099723 -0.00336671 0.0115943 -0.229954 0.00175853 9.96632
0.998 -0.00943366 0.00683195 0.017113 -0.183204 -0.33365 9.9342
0.999 -0.0172504 -0.00422623 -0.00615151 -0.118672 -0.131124 9.73474
1 0.00245885 0.0370793 -0.00286137 -0.169371 0.156397 9.72645
1.001 -0.00567088 0.0185034 0.00827403 -0.179237 -0.304665 10.1372
1.002 -0.00497727 0.0148987 9.52125e-05 -0.224378 -0.281398 9.96474
1.003 -0.00818071 -0.00802851 -0.0283038 -0.161945 -0.129995 9.92345
1.004 0.00119001 0.0125159 -0.0108972 -0.213494 -0.0687522 9.92369
1.005 -0.0121304 0.00243901 -0.0144287 -0.208243 -0.199117 10.096
1.006 0.00234166 0.0188281 -0.0160361 -0.443184 -0.0900252 9.85444
1.007 0.0136585 -0.0130765 -0.00760388 -0.0503038 -0.16125 9.76641
1.008 -0.0113239 -0.00590813 -0.00512712 -0.330462 -0.174531 9.88537
1.009 0.00378513 0.00598725 -0.000618838 -0.0404924 -0.053435 9.84453
1.01 0.00610729 0.00425969 -0.00310426 -0.244949 -0.0370697 9.87277
1.011 -0.00363578 -0.00641913 0.00418464 -0.179558 0.0313914 9.9174
1.012 0.00298669 0.00194532 -0.0188894 -0.232425 -0.238852 9.9455
1.013 -0.0112718 0.00928431 -0.0114537 -0.239042 -0.220984 9.77997
1.014 -0.00752243 0.00169668 -0.0107029 -0.112119 -0.290135 9.97034
1.015 0.0106888 0.00020118 -0.0193371 -0.178372 -0.356114 9.81001
1.016 -0.00488442 -0.00132871 0.0120168 -0.355309 -0.389466 9.74621
1.017 0.00808783 0.0211364 0.0258504 -0.193144 -0.220646 9.57058
1.018 0.0226927 0.0242577 -0.00587611 -0.154888 -0.305878 9.87052
1.019 -0.00778872 -0.00448704 0.00755351 -0.199136 -0.168805 10.0169
1.02 0.00728555 0.00926776 -0.00551483 -0.366412 0.11466 10.0001
1.021 -0.0201017 0.00106457 0.00288615 -0.317086 -0.269516 9.8339
1.022 0.00554192 -0.000813219 -0.0113363 -0.199178 -0.150964 9.89829
1.023 0.00608278 0.00856506 -0.00100036 -0.165097 -0.484334 10.0403
1.024 0.0110576 0.0141355 0.0181977 -0.152792 -0.157559 9.71463
1.025 0.00276183 -0.00351674 0.0038443 -0.314982 -0.196035 9.94859
1.026 0.0138331 0.0271081 -0.011856 -0.128664 -0.0710397 9.94684
1.027 -0.00603405 0.0154275 -0.0235524 -0.517392 -0.234141 9.91962
1.028 -0.00909111 0.0139742 0.00445149 -0.0644321 -0.277954 9.95001
1.029 -0.00532528 0.0170149 -0.00692667 -0.300204 -0.316393 9.973
1.03 -0.0273019 0.00626728 -0.000248736 -0.234514 -0.0749008 9.93953
1.033 -0.00208752 0.00378648 0.00421965 -0.285948 -0.239141 9.85713
1.034 0.0156214 -0.00272436 0.00111969 -0.249542 -0.0459532 9.80494
1.035 -0.00465318 -0.00775564 -0.00277444 -0.131974 -0.0762966 9.58946
1.036 -0.00763688 -0.00343057 0.0124351 -0.200976 -0.166869 9.78391
1.037 0.00889308 0.0212176 -0.00141444 -0.260292 0.0510588 10.0117
1.038 0.0111869 0.00961764 0.00408174 -0.179311 -0.208829 9.91937
1.039 0.00273506 0.00055822 0.0184627 -0.274792 0.052909 9.89212
1.04 0.00838315 0.00175321 0.0102161 -0.272239 -0.386269 9.8475
1.041 0.00355511 -0.0048755 0.0103958 -0.340214 -0.0668539 9.90386
1.042 -0.000165943 0.00584369 0.0140617 -0.275433 -0.197583 9.87384
1.043 0.00133221 0.00448478 0.00489477 -0.208408 -0.112954 9.83869
1.044 0.0217761 0.00135044 -0.00697126 -0.0460775 -0.453462 9.76248
1.045 0.00113924 0.00533568 0.0135918 -0.300098 -0.212174 9.73966
1.046 -0.00207617 0.00727565 -0.00404285 -0.22694 -0.181294 10.115
1.047 -0.00976176 0.00791327 -0.00275052 0.0325484 -0.0296225 10.0569
1.048 0.0100546 -0.00781647 0.00604225 -0.0938742 0.0063622 10.0037
1.049 -0.00261189 0.024541 -0.0188201 -0.342542 -0.0597264 9.95081
1.05 0.00639904 0.00978338 0.00399868 -0.176467 -0.250364 10.0059
1.051 -0.00990421 0.00224582 0.00880782 -0.400356 -0.258696 9.89081
1.052 0.00262143 0.00813549 -0.0128487 0.0725932 -0.1497 9.78646
1.053 -0.0210185 -0.00987839 0.0154624 -0.100045 -0.402748 9.92118
1.054 0.00372527 -0.0109476 0.00469385 -0.19596 -0.212254 9.86266
1.055 -0.0259938 0.0224209 -0.00235188 -0.0918087 -0.243456 9.96199
1.056 0.00656801 -0.00590317 0.0069167 -0.23962 -0.215026 9.89612
1.057 -0.0116023 0.0117846 0.00568152 -0.161161 0.0570987 9.64502
1.058 -0.0064633 0.0201267 0.00698192 -0.229541 -0.210213 9.73236
1.059 -0.00587254 0.0040174 -0.0022084 -0.477813 -0.0833795 9.7402
1.06 0.0259976 -0.00545986 -0.0128581 -0.0586731 -0.149385 9.98356
1.061 0.0155642 0.0057322 -0.000296364 -0.310683 -0.542016 9.96221
1.062 0.00299463 -0.00164343 -0.0142227 -0.20596 -0.278199 9.72547
1.063 -0.0208084 -0.00418511 0.0185549 -0.0926726 -0.122416 9.95539
1.064 0.00458847 -0.0159464 0.00280667 -0.477761 -0.247187 9.942
1.065 0.00713006 -0.0150327 -0.0174562 -0.389615 -0.28641 9.81427
1.066 -0.00126758 0.0137852 -0.00163524 -0.241401 -0.394522 9.83577
1.067 -0.0161386 -0.0163787 -0.00120301 -0.126106 -0.0524284 9.91252
1.068 -0.00219405 -0.0135008 -0.00124087 -0.209131 -0.286278 10.0051
1.069 0.00762114 0.0232483 -0.0134611 -0.34386 -0.198713 9.7607
1.07 -0.00235182 0.0154867 0.00175425 -0.0894016 -0.246519 9.8291
1.071 -0.0120897 0.00946101 0.0106224 -0.196706 -0.0692237 9.79733
1.072 0.00685561 0.0109492 0.00656003 -0.254662 -0.232023 9.60585
1.073 -0.0194536 0.00708623 -0.00673347 -0.481719 -0.317535 9.79135
1.074 -0.0108421 0.0198481 0.00550308 -0.14234 -0.0699348 9.94683
1.075 0.00544164 0.0135711 0.0128925 -0.235828 -0.00601286 10.2222
1.076 -0.000715903 0.0118614 -0.0151094 -0.0564141 -0.0442539 9.92952
1.077 -0.00622814 0.00934991 0.000780162 -0.150729 -0.0911572 9.62953
1.078 -0.00356233 0.00525361 -0.0116161 -0.155257 -0.0579942 9.73121
1.079 -0.00396352 0.000196537 -0.0110633 -0.361119 -0.0138671 9.93038
1.08 0.0144625 -0.00825628 -0.00560894 -0.245633 -0.21985 9.85941
1.081 -0.00700697 0.00695349 0.000526822 -0.0971199 -0.343467 9.94033
1.082 0.00755318 -0.019205 0.00986746 -0.188308 -0.181055 9.92506
1.083 -0.0108463 -0.00247438 0.00276653 -0.133843 -0.157784 9.95991
1.084 0.00875834 0.00177288 -0.00431718 -0.237025 -0.140878 9.95531
1.085 0.0112993 0.000660334 -0.000234129 -0.159366 -0.163661 9.67557
1.086 -0.0212399 0.0164301 -0.0112453 -0.222577 0.078479 9.8596
1.087 0.00188703 -0.00189665 -0.0108062 -0.208032 -0.0831124 10.1343
1.088 -0.0092699 0.0171583 0.00945416 -0.16109 -0.141436 9.95728
1.089 -0.00705438 0.00625021 0.00446909 -0.0697417 -0.0184145 10.0607
1.09 -0.00877438 0.000411631 -0.0025909 -0.239352 -0.312356 9.87517
1.091 0.0107288 0.00778283 0.00295703 -0.31222 -0.171836 9.64153
1.092 -0.0131615 0.0181739 -0.0042586 -0.11349 -0.0151362 9.96529
1.093 -0.0217453 -0.015319 -0.00836267 -0.0977115 -0.131193 9.79999
1.094 -0.0138708 0.00487285 -0.0158662 -0.23795 -0.202416 9.9051
1.095 -0.00406763 0.00949136 0.0132708 -0.129892 -0.366407 9.93419
1.096 -0.000874209 0.0135581 -0.019602 -0.225689 -0.195625 10.1489
1.097 0.0127948 0.0162024 -0.0123358 -0.165405 0.0114701 10.0753
1.098 -0.0153351 0.00867813 -0.00296466 -0.323882 -0.325969 9.67961
1.099 -0.00121342 -0.000741203 -0.00694544 -0.164321 -0.304775 9.87184
1.1 -0.00683265 -0.000379856 -0.00643986 -0.303045 -0.276456 9.79178
1.102 0.00555971 -0.00519413 -0.0163986 -0.30694 -0.23469 10.1206
1.103 0.00893638 0.00392536 -0.00810837 -0.341053 -0.0112326 9.90901
1.104 0.00580049 0.0206592 -0.00151541 -0.199434 -0.272162 10.1602
1.112 0.0124674 -0.00781504 0.025296 -0.267361 -0.292581 9.74604
1.113 0.00755041 -0.0195438 -0.0126169 -0.358019 -0.20295 9.8358
1.114 -0.0240202 0.0121587 0.00192833 -0.455807 -0.145903 9.98176
1.115 -0.0219556 -0.00278392 0.00486174 -0.192813 -0.00207173 9.79026
1.116 0.0161327 0.00626309 0.00502764 -0.374793 -0.137306 9.97885
1.117 -0.0129622 -0.00248485 -0.0106307 0.00537678 -0.388425 10.0437
1.118 0.00972358 0.0230378 -0.00171912 -0.132046 -0.237513 9.86063
1.119 0.0118106 0.0215074 0.00295501 -0.137769 -0.0892767 10.0238
1.12 0.00417784 0.00990687 0.0190114 -0.338438 -0.175227 9.70841
1.121 -0.0194967 0.0025705 -0.00330184 -0.465959 -0.28096 10.031
1.122 -0.00398449 -0.0057048 -0.00115232 -0.368242 -0.214583 9.96023
1.123 0.0189382 0.00925183 0.00442088 -0.159743 -0.149181 9.81773
1.124 -0.0207566 0.0103516 -6.38831e-05 -0.345476 -0.249641 10.001
1.125 -0.0235901 -0.0182243 0.00737203 -0.412625 -0.301655 9.68713
1.126 0.00417407 -0.00701635 -0.0086131 -0.357564 0.025457 9.92473
1.127 -0.000865509 0.0200351 -0.00767564 -0.370803 -0.0432455 9.868
1.128 -0.0114049 -0.0115796 -0.0132916 -0.16415 -0.294013 9.83459
1.129 0.00311443 -0.00682999 -0.00405277 -0.259183 -0.417071 9.81057
1.13 -0.0144785 0.00369212 -0.0199018 -0.160581 -0.247541 9.83095
1.131 -0.00456032 0.0195241 -0.00525404 -0.259518 -0.399342 9.99929
1.132 0.0101562 0.00237973 0.0128465 -0.326589 -0.12728 10.0124
1.133 0.0266048 0.0200612 0.00544411 -0.0189629 -0.132124 9.9314
1.134 -0.00507358 -0.00694313 -0.0166213 -0.386005 -0.0884894 9.95372
1.135 0.0151284 -0.00870301 0.0147687 -0.168229 -0.0652734 9.92835
1.136 0.00942546 -0.00144647 -0.00139876 -0.307088 -0.3132 9.8659
1.137 -0.00620474 0.0121345 -0.000629142 -0.305634 -0.218532 9.87689
1.138 -0.0103956 0.00548015 -0.00992684 -0.176447 -0.33236 9.94993
1.139 -0.0238781 0.0128951 0.00183929 -0.197608 -0.180788 9.9777
1.14 -0.0071061 -0.00615291 -0.00229068 -0.247446 -0.00433305 9.9471
1.141 0.00301604 -0.00806971 -0.0123144 -0.302368 -0.243644 9.87072
1.142 -0.00306429 0.0190836 -0.00395793 0.00396733 -0.0770025 9.8154
1.143 0.00200724 0.000448451 -0.0111934 -0.322704 -0.324801 9.61806
1.144 0.00952681 -0.0120313 -0.00429942 -0.300245 -0.390655 9.89733
1.145 -0.0061121 0.0169084 0.00166534 -0.160444 -0.17421 9.91863
1.146 -0.0162717 0.00177829 -0.0081581 -0.196516 -0.293875 9.92233
1.147 0.00691278 0.0175587 0.00443996 -0.207621 -0.154861 10.0001
1.148 -0.00907147 0.00798838 0.00561743 0.0669368 -0.14072 9.82302
1.149 -0.00541978 0.00753422 0.00743121 -0.247486 -0.162549 9.74975
1.15 0.00764633 0.00224995 -0.0135156 -0.347092 -0.176526 9.74716
1.151 -0.0162674 0.0265811 0.00542657 -0.310311 -0.366879 9.85959
1.152 -0.0113576 0.0103675 0.00432582 -0.28975 -0.288696 9.9003
1.153 0.0011927 -0.00692413 -0.00441218 0.128449 -0.274387 9.80999
1.154 -0.0111406 0.023917 0.0113369 -0.359434 -0.273953 9.86044
1.155 -0.00557516 0.0108207 -0.000617047 -0.334878 -0.111825 9.8495
1.156 0.00557688 -0.000970891 0.0113436 -0.340051 -0.0258453 9.6864
1.157 0.00641558 -0.00715023 0.0024793 -0.406727 -0.162207 9.85004
1.158 0.00151337 -0.000285617 -0.000146043 -0.178133 0.205847 10.0068
1.159 0.0033887 0.00838603 0.0160794 -0.102928 -0.0765308 9.69543
1.16 -0.000306853 0.00608503 -0.0033644 -0.216639 -0.194415 10.1
1.161 0.00147079 0.000838227 0.00782067 -0.178592 -0.23822 9.85594
1.162 0.013016 -0.00330877 -0.00739886 -0.123683 -0.263654 9.62464
1.163 -0.00355046 0.00772496 -0.00317945 0.0247667 -0.279381 9.88198
1.164 0.00169006 0.0115981 0.00833589 -0.2816 0.0487354 9.91034
1.165 0.00823746 0.00878038 0.00176056 -0.339008 -0.407923 10.1334
1.166 0.00148868 -0.0052893 -0.000981506 0.125991 -0.185692 9.94689
1.167 0.0163022 -0.0105717 -0.00194862 0.0536695 -0.19822 9.83956
1.17 -0.00078895 0.00951278 -0.00942226 -0.266078 0.060561 9.91563
1.171 -0.0330897 0.001586 0.00512335 -0.487322 -0.0401865 9.76119
1.172 -0.00804624 -0.00121443 -0.00820751 -0.246058 -0.174528 9.58685
1.173 -0.00651238 -0.00200886 -0.0115739 -0.00686415 -0.308524 9.50722
1.174 0.00121919 0.0252407 -0.0162047 -0.204405 -0.155115 9.98386
1.175 -0.0123174 0.00647566 0.00629165 -0.383151 -0.168841 9.79344
1.176 -0.00616171 0.0112984 0.0165486 -0.273067 -0.175228 9.85675
1.177 0.00184152 0.0003438 0.00815748 -0.24638 -0.0234151 9.78311
1.178 0.00627266 0.0103135 0.0135834 -0.370827 -0.319143 9.97637
1.179 0.00941867 0.00537145 0.00163894 0.00628732 0.0332055 9.78297
1.18 0.000787262 0.00836925 0.00133267 -0.241629 -0.156546 9.86212
1.181 -0.0126694 0.0167505 -0.00677498 -0.126903 -0.16485 9.87232
1.182 -0.00520328 0.00579761 -0.00197913 -0.0987378 -0.233354 9.80466
1.183 -0.01025 0.0112718 0.00612065 -0.231831 -0.0333773 9.77447
1.184 -0.000830567 -0.0232213 -0.014592 -0.227927 -0.0171171 9.59598
1.185 0.0103036 0.0131472 -0.0134047 -0.0855864 -0.164783 9.7269
1.186 0.00546837 -0.00457156 0.00180427 -0.153796 -0.0275762 9.93878
1.187 -0.00756331 -0.00969828 0.00185948 -0.506264 -0.117013 9.79111
1.188 0.0213237 0.00482639 0.0119847 -0.107189 -0.0802849 9.77052
1.189 0.00423809 -0.0159668 -0.0167147 -0.197503 -0.0832852 9.86131
1.19 0.00726845 0.00482489 0.0127712 -0.243148 -0.0328327 9.78822
1.191 -0.00591263 0.0034421 -0.00505477 -0.330745 -0.268081 9.69557
1.192 0.000747567 0.0292868 -0.0029988 -0.151638 -0.226612 9.86499
1.193 -0.0286527 0.0149562 -0.0077923 -0.0445792 -0.285015 9.94467
1.194 0.0172335 0.0101781 0.00154242 -0.223792 -0.266776 9.84133
1.195 -0.0162025 0.000759661 -0.00494063 0.0674815 -0.09641 9.8255
1.196 0.0156154 -0.000870665 -0.0118559 -0.452945 -0.125147 10.0203
1.197 -0.00327857 0.0136916 0.0129227 -0.186009 -0.406177 9.8904
1.198 -0.00398427 -0.0016935 0.00152913 -0.222536 -0.0572973 9.8963
1.205 -0.0113846 -0.009183 -0.0100477 -0.245905 -0.362352 9.74695
1.206 -0.00948279 -0.0175582 -0.0099609 -0.0103471 -0.360347 9.83017
1.207 0.00779332 0.0144398 -0.00243969 -0.12198 -0.112524 9.93462
1.208 0.00131903 0.00353767 0.004621 -0.435691 -0.028573 9.91482
1.209 -0.0106035 0.00814199 0.0174772 -0.156592 -0.262722 9.79429
1.21 -0.00898274 0.00884739 0.0142758 -0.165794 -0.10622 9.81771
1.211 0.00308768 -0.001453 0.0157107 -0.029879 -0.313652 9.67808
1.212 0.0119213 0.0085671 0.00310506 -0.0877175 -0.172269 9.8765
1.213 -0.0179682 0.00410271 -0.0163042 -0.144338 -0.0305471 9.83669
1.214 -0.0109402 0.0159829 0.0203529 -0.30163 -0.330209 9.93383
1.215 0.0258484 -0.00630263 -0.000157221 -0.414159 -0.233173 9.79351
1.216 -0.0169987 0.0157659 -0.00672255 -0.311507 -0.143717 9.7084
1.217 0.00105489 0.0180602 0.00823617 0.0702492 -0.25087 10.0414
1.218 -0.00311853 0.00168696 -0.00385923 -0.361626 -0.0996107 9.92376
1.219 -0.00515525 0.0059848 0.00126928 -0.43753 -0.125999 9.84649
1.22 0.00618961 -0.00104761 -0.0077925 0.0352292 -0.270472 10.0243
1.221 -0.00969912 -0.00862468 0.00797842 -0.301445 -0.227064 9.98775
1.222 -0.0102885 0.00204816 -0.00539283 -0.243577 -0.230354 9.94707
1.223 0.0109765 0.0149489 -0.00266944 -0.206605 -0.284787 9.71167
1.224 -0.00972766 0.00918434 0.0198046 -0.13877 -0.227381 9.70261
1.225 0.00536529 -0.0194032 -0.0112611 -0.194032 -0.220531 10.0115
1.226 -0.00771333 0.0141515 -0.00321555 -0.294323 -0.157815 9.77175
1.227 -0.0153557 0.0125389 -0.029695 -0.404285 -0.15116 10.0325
1.228 -0.00863477 0.0365816 0.00378874 -0.424814 -0.112801 9.95381
1.229 0.000908446 -0.00334291 0.0115724 -0.181584 -0.276304 10.031
1.23 0.000107778 0.000148292 0.0035482 -0.213646 -0.226739 10.0494
1.231 -0.00161462 0.0304308 -0.000695239 -0.220111 -0.327001 9.86909
1.232 0.00934344 -0.00754459 0.0117345 -0.209739 -0.313052 9.76373
1.233 -0.0112169 -0.00430555 0.0055138 -0.200464 -0.120523 9.91419
1.234 0.00669445 0.00699473 0.00150267 -0.184159 -0.434088 9.82505
1.235 0.00209829 0.00532303 -0.0112952 -0.0300964 -0.229749 10.0295
1.236 0.00648424 0.00320134 -0.0195848 -0.252238 -0.235864 9.96777
1.237 -0.00315534 -0.00331181 0.00953981 -0.355168 -0.134869 9.80335
1.238 0.00514388 0.0159902 -0.0130793 -0.374786 -0.19635 9.9134
1.239 0.00620962 0.0220605 0.012648 -0.132663 -0.117348 9.90721
1.24 -0.000734296 0.0133511 -0.0147453 0.159413 -0.139714 9.55888
1.241 0.000758899 0.0091963 -0.000604739 -0.152707 -0.17027 9.76274
1.242 0.00173856 0.000632539 0.00147477 -0.319642 -0.435214 9.83379
1.243 0.00880838 -0.0014424 -0.00481867 -0.365249 0.0226642 9.84176
1.244 0.0174221 3.39486e-05 -0.00617707 -0.118475 -0.139927 9.97635
1.245 0.00727957 -0.0158246 0.00564333 -0.353885 -0.0393886 9.59071
1.246 -0.0102617 0.000837122 0.0160286 -0.243195 -0.222781 9.87707
1.247 -0.0115182 -0.00455573 -0.00447149 -0.312425 -0.152264 9.99368
1.248 -0.0277236 0.0162555 -0.00781924 -0.134791 -0.0639219 9.97253
1.249 -0.0041597 -0.00274121 -0.0109411 -0.128529 -0.27501 9.92139
1.25 -0.0058368 -0.00456566 0.00527313 -0.293328 -0.063349 9.90917
1.251 -0.000290414 0.0112968 -0.00149769 -0.221587 -0.285451 9.88592
1.252 -0.00467837 0.0218622 -0.0101754 -0.265291 -0.21862 9.99928
1.253 0.0195254 0.0104053 0.00833216 -0.323401 -0.194186 9.99157
1.254 0.0129286 0.00491392 0.00369151 -0.0966991 -0.169896 9.95002
1.255 0.00116904 0.0137066 0.000585746 -0.092607 -0.185122 9.75768
1.256 0.00676398 0.0219306 -0.0138793 -0.13244 -0.209311 9.89159
1.257 -0.0061133 0.00935649 0.00265285 0.0666091 -0.189314 9.58965
1.258 -0.0218434 -0.00352269 -0.0189274 -0.317525 -0.0247949 10.0424
1.259 -0.0040386 -0.0060861 -0.0235146 -0.497997 -0.0903074 10.0309
1.26 -0.00554426 0.0147229 -0.021055 -0.196328 0.140793 9.7345
1.261 -0.00772625 0.0103679 -0.0110836 -0.220054 -0.22056 9.7241
1.262 -0.0060965 0.00994995 0.0129755 -0.508384 -0.271993 9.87254
1.263 -0.00825502 0.0190177 0.00150521 -0.204417 -0.277908 9.78765
1.264 0.0112717 0.0028842 0.0123957 -0.257831 -0.116538 9.87102
1.265 0.0198277 0.00329233 0.00722042 -0.208936 -0.0654417 9.85526
1.266 -0.00710799 0.0166184 0.0162596 -0.271388 -0.177599 9.68735
1.267 -0.0138781 0.0144203 0.0273094 -0.389162 -0.0555542 9.74958
1.268 0.0131166 0.000441176 0.000215811 -0.295162 -0.355138 9.80748
1.269 -0.0205751 0.0138222 -0.0204386 -0.502983 -0.303295 9.83483
1.27 0.00535221 -0.000385323 -0.0157732 -0.381414 -0.152149 9.83985
1.271 -0.00478186 -0.00314789 -0.0198502 -0.215268 -0.282253 9.64199
1.272 -0.0138213 -0.00609083 0.000370901 -0.208778 -0.0867746 10.0766
1.273 0.0131605 -0.0116769 0.000873272 -0.354903 -0.202406 9.77436
1.274 -0.018342 0.00921988 -0.00780362 -0.333801 -0.334086 9.90095
1.275 0.00202271 0.00967411 0.00681652 -0.260078 -0.170223 10.0302
1.276 0.0171186 -0.000177482 -0.0216997 -0.0582949 -0.0631239 9.77986
1.277 0.0212502 0.0118075 0.0111621 -0.225166 -0.159415 9.95157
1.278 -0.0186973 0.00169952 0.000781052 -0.2978 -0.19946 9.87156
1.279 -0.0015465 0.0140168 0.00313326 -0.203931 -0.18567 10.1104
1.28 0.00790934 0.0158799 0.00732041 -0.403031 -0.275627 10.0138
1.281 -0.00482442 0.00583066 -0.00615185 -0.40657 0.0527166 9.80856
1.282 -0.00167484 0.00335547 0.00666925 -0.204681 -0.284293 9.82516
1.283 -0.00447989 0.0197969 0.000854727 -0.283689 -0.2237 9.97068
1.284 -0.00887528 -0.0247769 -0.0147194 -0.0860149 -0.065491 9.84611
1.285 -0.00778326 0.00435257 -0.0111876 -0.15332 -0.147448 9.80177
1.286 0.00420367 0.0143424 -0.00177535 -0.215299 -0.163908 9.916
1.287 -0.00144083 0.0116398 -0.0171488 -0.243319 -0.308917 9.83088
1.288 0.00977874 0.00127613 -0.00373323 -0.20889 -0.173795 10.0367
1.289 0.000693763 -0.00113236 -0.00147695 -0.219559 -0.0303 10.0605
1.29 -0.0016915 -0.0195014 0.00816782 -0.15763 -0.331604 9.85018
1.291 -0.00275217 -0.000292853 0.0033459 -0.12047 -0.0696732 9.93343
1.292 -0.0212058 -0.00510578 0.00811531 -0.0501645 0.0164861 9.69144
1.293 -0.00318135 0.0030034 0.00220908 -0.248056 -0.241179 9.85733
1.294 0.0324348 -0.0156688 -0.0137068 -0.200697 -0.120349 9.95033
1.295 0.00695714 0.00573569 0.0171343 -0.163098 -0.0703128 9.87191
1.296 0.0196864 -0.000420607 -0.0168137 -0.144332 -0.091868 9.91054
1.297 -0.0024168 -0.00271005 0.00140428 -0.336216 0.035091 9.72409
1.298 -0.016371 -0.0117974 0.0218563 -0.043658 -0.277502 9.83821
1.299 -0.00736556 0.0010206 0.0131934 -0.160341 -0.293084 9.76688
1.3 0.0107811 0.0048605 0.00150767 -0.0965503 -0.23034 9.85752
1.301 -0.000913059 0.00568635 -0.0106329 -0.191021 -0.350627 9.81105
1.302 -0.00749959 0.00524662 0.0059832 -0.200356 -0.180966 9.82799
1.303 0.0299898 0.03199 0.00965156 -0.36421 -0.118287 9.93097
1.304 0.0116983 -0.00870507 0.0185268 -0.204907 0.0212263 10.0117
1.305 -0.00625187 0.0189102 -0.011216 -0.153627 -0.242315 10.0661
1.306 -0.00248465 0.0195682 -0.0091442 -0.0823806 -0.400373 9.92406
1.307 -0.0128257 0.0133551 -0.0149087 -0.18955 -0.272606 9.89069
1.308 0.0088329 0.02107 -0.00281178 -0.293365 -0.314081 9.80592
1.309 -0.0172081 0.00814322 -0.0191174 -0.227338 -0.181243 9.66346
1.31 -0.00899089 0.00248324 0.00937668 -0.218624 -0.227701 9.90943
1.311 0.00812514 0.0114483 -0.0269719 -0.160458 -0.283809 9.80249
1.312 -0.0103946 0.0206139 0.00800724 -0.377728 0.0382919 9.90069
1.313 0.00462732 -0.00744818 0.0122155 -0.220989 -0.330859 9.7758
1.314 -0.0198133 0.00418301 -0.0169024 -0.140266 -0.377656 9.72779
1.315 -0.0187238 0.0182459 -0.000921107 -0.184039 -0.268424 9.72375
1.316 0.00247799 -0.0149935 0.0103283 -0.256293 -0.185641 9.87456
1.317 -0.00428374 0.00376101 0.00691106 -0.161958 -0.547986 9.78086
1.318 -0.0282741 -0.00122015 -0.0141756 -0.141706 -0.0476632 9.79898
1.319 -0.0161748 0.0026176 0.00033448 0.0312225 -0.116544 9.83445
1.32 -0.00506444 0.00311476 0.0139255 -0.415497 -0.21805 10.1051
1.321 0.00219902 -0.0116276 0.00762225 -0.119703 -0.0634479 10.0335
1.322 -0.00214053 0.0135754 0.00666302 -0.543237 -0.036052 9.88888
1.323 0.00350696 -0.00986192 -0.0248542 -0.21661 -0.260817 10.2705
1.324 0.022205 -0.00644642 -0.0149057 -0.308324 -0.272447 9.9105
1.325 -0.0102748 -0.00570577 0.0258309 -0.106791 -0.30756 9.96373
1.326 -0.000834202 -0.00563555 -0.00457394 -0.149107 -0.203786 9.74727
1.327 -0.00536289 -0.00296722 -0.0154448 -0.0766518 -0.31529 9.93081
1.328 -0.0208536 -0.000788158 0.00651807 -0.321876 -0.0422708 9.80627
1.329 0.0268219 0.0100696 0.0246036 -0.404601 -0.00855719 9.94015
1.33 0.00434317 0.0422153 -0.00268845 -0.375063 -0.265568 9.76896
1.331 -0.00545176 0.0264009 0.0138613 0.102516 -0.114597 9.90165
1.332 -0.01415 -0.00912581 -0.0125167 -0.378128 -0.166918 9.91188
1.333 -0.00608485 -0.0128931 -0.0145064 -0.447895 -0.0990425 9.80299
1.334 0.00240623 -0.00628023 0.00654066 -0.172779 -0.133586 10.0813
1.335 0.0304447 -0.00259492 0.0178304 -0.224422 -0.376579 9.9655
1.339 0.00479554 -0.0130513 0.0257119 -0.250131 -0.146117 9.82296
1.34 0.00358843 0.00938194 0.0310207 -0.519797 -0.221204 10.0246
1.341 0.00985711 0.0036401 -0.00236676 -0.292669 -0.20847 9.95349
1.342 0.00442439 0.00671485 -0.00286229 -0.433244 -0.212815 9.99941
1.343 0.00393834 0.0115727 -0.00535525 -0.256986 -0.390189 9.84516
1.344 -0.00995698 0.0341924 -0.0179866 0.0383083 -0.115314 9.79565
1.345 0.0188834 0.0245335 -0.0163679 -0.411678 -0.0393791 9.75709
1.346 0.0046958 0.00198407 -0.00306023 -0.154438 0.0329252 9.78455
1.347 -0.00455652 0.0116594 2.52096e-05 -0.0712496 -0.20949 9.81971
1.348 -0.0119561 0.00591967 -0.00124818 -0.436008 -0.279862 10.1187
1.349 -0.0220511 -0.00164641 -0.00886241 -0.33099 -0.279139 9.84226
1.35 -0.0216826 0.0136795 0.00380213 -0.176064 0.0494432 9.83588
1.351 -0.0100906 0.0186534 0.00644678 -0.33501 -0.0402673 10.1408
1.352 -0.0122711 -0.00585284 -0.00921768 -0.171768 -0.226592 9.90201
1.353 -0.0102391 0.0149266 -0.00958784 -0.165992 -0.231552 9.87143
1.354 0.0236361 -0.000610169 0.00499749 -0.214369 -0.365335 9.90914
1.355 0.00296911 0.0129926 0.00842621 -0.20505 -0.425043 9.75056
1.356 -4.65578e-05 0.0112493 0.0106702 -0.327064 -0.0759233 9.78959
1.357 -0.00661081 0.00726554 -0.00726827 -0.409179 -0.13371 9.74659
1.358 0.00434697 0.00608579 0.00556954 -0.274547 -0.433843 10.0416
1.359 -0.00499877 0.00646072 0.00313532 -0.220993 -0.254007 9.81047
1.36 0.00624198 -0.00274685 -0.00946059 -0.361409 -0.289205 10.0047
1.361 0.00620469 0.0166647 -0.00837343 -0.0820625 -0.255125 9.89798
1.362 0.000602971 0.0142798 0.0152447 -0.0197843 0.115724 9.92788
1.363 0.0086271 -0.0159214 0.00842721 -0.189657 0.0146002 9.797
1.364 0.00304072 0.00638555 0.00387644 -0.142771 -0.178027 9.8619
1.365 -0.00248898 -0.00217909 0.00702066 -0.198427 -0.144281 9.71279
1.366 0.00349263 0.0282907 -0.0136103 -0.16229 -0.185756 9.85128
1.368 -0.00360678 0.0100403 0.00495687 -0.163836 -0.325018 9.75965
1.369 0.00129699 0.0155807 -0.0123906 -0.209097 -0.21938 9.83415
1.37 -0.00400417 0.0124584 0.00525368 -0.111876 -0.166205 9.88463
1.371 -0.00513058 0.0176723 0.00855433 -0.465345 -0.167076 9.81571
1.372 -0.000223103 0.00227338 0.00361081 -0.272583 -0.407124 9.81638
1.373 -0.00124809 0.00132127 0.00499475 -0.142793 -0.292094 9.99565
1.374 -0.00656956 -0.0157882 0.0128236 -0.231022 -0.154788 9.85935
1.375 -0.0115696 -0.00224945 0.00847714 -0.262774 -0.183978 9.98533
1.376 0.01406 0.0199746 -0.00382774 -0.211232 -0.310379 9.94054
1.377 6.38302e-05 0.00697108 0.0151559 -0.199358 -0.344231 9.72982
1.378 -0.00587045 0.0153559 0.0109531 -0.0711959 -0.338702 9.97341
1.379 0.000305943 0.00806299 -0.00430257 -0.0755706 -0.193401 9.85643
1.38 0.00156884 0.0049875 0.00238756 -0.249346 -0.309283 9.80474
1.381 -0.0104883 -0.00597507 -0.00430775 -0.19542 -0.226131 10.0513
1.382 -0.0274512 0.00479457 0.00308941 -0.488506 -0.228114 9.97819
1.383 0.0004532 0.0244653 -0.00560579 -0.159022 -0.346259 9.87612
1.384 -0.0198432 -0.00659738 0.00974794 -0.357856 -0.327417 9.81317
1.385 -0.0225237 0.0122361 -0.00440471 0.0922863 -0.322847 9.96717
1.386 0.0040424 -0.0246314 -0.0102263 -0.354731 -0.189615 9.94856
1.387 -0.00754217 0.00376412 -0.0120341 -0.133059 -0.187769 9.76394
1.388 0.00289515 0.00987897 -0.0069339 -0.0610183 0.0743709 10.0216
1.389 -0.00561753 -0.00133886 -0.00649533 -0.438097 -0.190165 9.85709
1.39 0.00924009 0.00932644 -0.0149155 -0.277654 -0.363064 9.82261
1.391 0.0042872 0.0139988 -0.0058613 -0.211408 0.0466953 9.81187
1.392 0.0172448 0.0133636 0.0101054 -0.295144 -0.18234 9.80324
1.393 -0.0112146 0.0174545 0.000255744 -0.184986 -0.0332948 9.98781
1.394 -0.0168932 0.0325153 0.00232633 -0.0805527 -0.282726 9.81161
1.395 -0.00136921 0.00498971 0.00597467 -0.287817 -0.122362 9.83068
1.396 -0.0209524 0.0133804 0.0194726 -0.0497062 -0.305476 9.92898
1.399 -0.00224471 -0.00823486 0.00372141 -0.199942 -0.131975 9.71862
1.4 -0.0272925 -0.00241721 -0.00399754 -0.19421 -0.0437613 9.69328
1.401 0.00478193 -0.0129231 -0.00873302 -0.164867 -0.000660653 9.94854
1.402 0.00483503 0.00334052 0.00514579 -0.18695 -0.170317 9.61509
1.403 -0.00612883 0.0125445 0.00745033 -0.179788 -0.278669 9.80087
1.404 0.000824434 0.00879831 -0.00161637 -0.280248 0.142333 9.64121
1.405 -0.00851708 0.00209955 -0.0222179 -0.278376 -0.196923 9.80502
1.406 -0.00780479 0.00671604 -0.00452349 -0.483652 -0.0789736 9.80787
1.407 0.00302421 0.0149986 -0.0092008 -0.209262 -0.275202 10.0057
1.408 -0.000184751 -0.00786325 0.014178 -0.321843 -0.417941 9.92639
1.409 -0.00338946 0.0100095 -0.00143982 -0.201495 -0.30856 9.78135
1.41 -0.0114824 0.00333076 -0.00126431 -0.266902 -0.132114 9.94256
1.411 0.00426835 -0.00324183 0.00423751 -0.325501 -0.272237 9.89235
1.412 -0.0063695 0.00568768 0.00760666 -0.42705 -0.335229 9.95281
1.413 0.00969199 -0.00312429 -0.00364593 -0.354035 -0.135381 9.91209
1.414 0.00454948 0.0100096 0.00498484 -0.151867 -0.18817 10.0901
1.415 0.00238714 0.00592305 0.0147449 -0.290369 -0.199942 10.022
1.416 -0.00534733 0.0119479 -0.00236422 -0.148978 -0.26132 9.94914
1.417 -0.00653618 0.000636726 -0.000162581 -0.177097 -0.0365696 9.84726
1.418 0.00523627 0.01573 0.000307586 -0.374116 -0.0625009 9.99617
1.419 -0.00570169 0.0119783 0.00955054 -0.308736 -0.329536 9.79911
1.42 0.00108098 -0.013873 -0.0144337 -0.294577 -0.026378 9.94756
1.421 0.00628153 0.00674752 0.0104027 -0.288762 0.0929816 9.76289
1.422 -0.0167362 0.00981283 0.00777051 -0.200248 -0.0617251 9.82371
1.423 -0.0057535 -0.00231748 0.00562634 -0.159537 -0.163477 9.96017
1.424 -0.0073397 0.0210914 -0.00461263 -0.206486 -0.063641 9.79621
1.425 0.00788722 0.00594461 0.0146679 -0.364669 -0.274497 9.7881
1.426 0.0174899 0.0223178 0.0125739 -0.111661 -0.185089 9.73762
1.427 0.0138151 -0.00915637 -0.0127788 0.0967562 -0.133972 9.91079
1.428 -0.0151726 0.0127369 -0.00188933 -0.0686972 -0.08983 9.89521
1.429 0.00140748 -0.00198169 -0.0010423 -0.25661 -0.358275 10.1409
1.43 -0.0142083 0.0033382 0.0222388 -0.266384 -0.105071 9.77097
1.431 -0.00745885 -0.00297887 -0.013654 -0.0796466 -0.389596 9.87931
1.432 -0.00998235 0.0115249 -0.00153438 -0.377735 -0.209426 10.0044
1.433 -0.0118565 0.0152224 -0.00734749 0.047716 -0.0633225 9.86235
1.434 -0.00350637 0.0126186 -0.00242073 -0.158788 -0.238786 10.0369
1.435 -0.00693488 0.00639254 0.000521252 -0.350928 -0.139554 9.75773
1.436 -0.00091612 0.0177253 -0.00570052 -0.282678 -0.142682 10.0539
1.437 0.0166529 0.00188852 -0.00242573 -0.258719 -0.3773 9.93585
1.438 0.00728855 -3.4173e-05 -0.00523071 -0.130731 -0.194004 9.87718
1.439 -0.00472293 0.0315433 0.00136028 -0.216115 -0.322592 9.85231
1.44 0.000431474 -0.00143957 0.0139029 -0.17151 -0.218899 10.0425
1.441 0.0112655 0.0202607 0.00131356 -0.403725 -0.235701 9.88961
1.442 0.0218402 -0.00285328 -0.015106 -0.2438 -0.0285217 9.85176
1.443 0.00748315 0.00980395 0.00961734 -0.260698 -0.108133 10.1709
1.444 -0.000765329 -0.0103827 0.00896055 -0.216079 -0.288339 9.87322
1.445 -0.00852494 -0.00218054 0.0062074 -0.310956 -0.333316 9.85422
1.446 0.00540332 0.0327774 0.0061009 -0.272326 -0.188124 9.74385
1.447 0.0254566 0.0180509 -0.00562261 -0.183892 -0.483907 9.68802
1.448 -0.00897467 -0.00650241 0.00305221 -0.183843 -0.481037 9.87409
1.449 -0.0110451 0.00687887 0.0251425 -0.319529 -0.23338 9.67548
1.45 -0.0076049 0.0107479 0.0151737 -0.396345 -0.228019 10.0006
1.451 0.0023571 -0.0128505 -0.000305883 -0.374887 -0.263856 9.78121
1.452 0.0118222 0.000843847 0.0202062 -0.0127345 -0.163001 9.83882
1.453 -0.00621124 0.0128005 -0.0198779 0.00287192 0.0306324 9.70535
1.454 -0.00815089 -0.00936663 0.00780762 -0.415322 -0.126816 9.80649
1.455 0.00225791 0.00402854 0.00906967 -0.242602 -0.187893 9.71478
1.456 0.00618337 0.0207804 0.00448161 -0.311337 -0.37138 9.78793
1.457 -0.00498499 0.0136462 0.0138633 -0.236445 -0.0921553 9.73733
1.458 -0.00257216 0.0139818 -0.0189542 -0.449569 -0.270365 9.7892
1.459 0.0116802 0.0158644 -0.00257489 -0.178272 -0.188019 9.62774
1.46 0.00755619 0.00135271 -0.00205087 -0.0569543 -0.221608 9.79454
1.461 -0.0103141 0.00804229 0.00409574 -0.0643724 0.0311576 10.1247
1.465 0.0194155 0.0113732 0.000717792 -0.208272 -0.0428087 10.0649
1.466 0.00995389 0.00166961 -0.00265364 -0.295551 -0.049748 9.9861
1.467 0.00512057 0.0243093 0.00250652 -0.408359 -0.158404 9.94214
1.468 -0.00399912 0.0127151 -8.32914e-05 -0.192179 -0.174546 9.86366
1.469 0.00252458 0.0111318 0.00488036 -0.237898 -0.319193 10.177
1.47 0.00739534 0.0129705 0.00811325 -0.119644 -0.282817 9.87609
1.471 0.00736836 -0.00339851 0.021959 -0.251235 -0.147194 9.89173
1.472 -0.0122855 0.00439589 -0.00167392 -0.355014 -0.325897 9.80344
1.473 0.000889184 0.0161007 -0.0150614 -0.0819244 0.0577835 9.66606
1.474 0.000596104 0.00810249 0.019448 0.0123426 -0.416059 10.0122
1.475 -0.0171564 -0.0125444 -0.000231449 -0.185049 -0.0752719 9.87768
1.476 0.00628711 -0.00167734 0.00289118 -0.170898 -0.118787 9.70832
1.477 -0.0103299 -0.00329342 -0.0090303 -0.265419 -0.316565 9.74711
1.478 0.00327673 -0.0140724 0.00719382 -0.426347 -0.345481 9.86209
1.479 -0.00529367 0.0112943 -0.0122306 -0.380719 -0.270586 9.94703
1.48 0.00657196 0.0132466 -0.0121342 -0.229209 -0.100588 9.91197
1.481 -0.0128476 -0.00277385 0.00126516 0.0220639 -0.12187 9.83983
1.482 -0.00849405 -0.00158411 -0.0232142 -0.331563 -0.239532 9.91724
1.483 0.0182351 0.0196963 -0.0216963 -0.196816 -0.184019 9.8521
1.484 -0.0130186 0.0134995 -0.011228 -0.187103 -0.281081 9.76081
1.485 0.0262313 0.00864135 -0.0107844 -0.439639 -0.373703 9.74465
1.486 -0.00394351 0.0236491 0.00786667 -0.313849 -0.310322 10.0151
1.487 -0.0165736 0.00593924 0.00298363 -0.119283 -0.187063 9.80792
1.488 0.0010385 -0.011086 0.000555432 -0.135487 -0.0315536 9.8845
1.489 -0.0172463 0.00844086 -0.0173811 -0.595639 -0.0428224 9.92359
1.49 -0.00549024 0.0122664 -0.00200693 -0.284573 -0.246719 9.7706
1.491 -0.031048 -0.0031754 0.0131194 -0.266554 -0.105744 10.0557
1.492 -0.00196129 0.00861859 -0.00645224 -0.253791 -0.130273 9.81559
1.493 -0.0159712 -0.00119369 0.0131066 -0.0428115 -0.249666 9.71395
1.494 -0.00238933 0.00829564 -0.016435 -0.200433 -0.172798 9.84627
1.495 -0.00750088 0.00209377 -0.00575918 -0.306014 -0.221439 9.7968
1.496 0.00290555 0.0236757 -0.00781486 -0.202602 -0.0271041 9.91994
1.497 -0.00761449 0.00807108 0.00333047 -0.0660791 -0.232649 9.99107
1.498 -0.00579275 0.00329525 -0.00919324 -0.19126 -0.113816 9.69033
1.499 0.000190983 0.0253387 -0.0133254 -0.248883 -0.165628 9.66094
1.5 -0.0145819 0.0120578 -0.00362986 -0.36504 -0.186127 9.87898
1.501 0.0154603 -0.000196194 -0.00589654 -0.3031 -0.0886699 9.84418
1.502 -0.0126325 0.0238502 -0.00769029 -0.388142 -0.222625 9.82865
1.503 -0.0199044 0.0177925 -0.00467064 -0.219055 -0.252186 9.99789
1.504 0.00951148 0.0223416 -0.00671174 -0.166929 -0.233503 9.73489
1.505 -0.0144549 -0.0113744 -0.00461247 -0.3114 0.0520271 9.81406
1.506 -0.0170008 0.00496816 0.00685416 -0.279707 -0.0984264 9.925
1.507 -0.00785241 6.8124e-05 -0.0172435 -0.128358 -0.291961 9.81711
1.508 -0.00606179 0.0074654 -0.01111 -0.219396 -0.35984 9.97368
1.509 0.0263763 0.00189751 0.00752738 -0.0378167 -0.109543 9.80942
1.51 0.00701537 0.00260401 -0.00809867 -0.197614 -0.0811348 9.95104
1.511 0.00912489 -0.00389904 0.00260867 -0.316454 -0.148296 9.88722
1.512 0.0183468 -0.015937 -0.00862264 -0.273088 0.00534023 9.89436
1.513 -0.00167786 0.0160247 0.0214107 -0.252595 -0.202147 9.92503
1.514 0.0149206 0.0153532 -0.0130777 -0.294214 0.187689 9.83654
1.515 -0.00159513 -0.000718341 0.00328417 -0.302339 -0.194461 9.92332
1.516 -0.00962461 0.02528 -0.00713569 -0.135608 -0.175 9.94071
1.517 -0.017192 0.0130555 -0.00992647 -0.349366 -0.0893382 9.92665
1.518 0.00376193 -0.00287203 -0.0136801 -0.346064 -0.185137 9.64734
1.519 -0.00575343 -0.0113696 -0.00762074 0.0700419 -0.150518 10.0145
1.52 0.00626058 -0.0161202 -0.00880756 -0.16983 -0.235221 9.9984
1.521 -0.0160059 -0.0101474 -0.00877708 -0.189692 -0.228414 9.78616
1.522 0.00814686 -0.00653507 0.00201693 -0.151382 -0.267861 9.8
1.523 0.00557007 0.00748477 -0.00191905 -0.135873 -0.084358 9.94862
1.524 0.00577369 0.000989655 0.011276 -0.246218 -0.248097 10.0826
1.525 0.0295327 -0.0258561 0.00148979 -0.446932 -0.202702 10.0708
1.526 0.00356333 0.0249459 0.00428097 -0.103046 -0.191005 9.79224
1.527 -0.0137635 -0.00513099 0.015798 -0.300474 -0.45335 9.79045
1.528 -0.0142219 0.0223313 0.00717066 -0.174008 -0.0474238 9.9313
1.529 -0.0117866 0.00245153 0.00918697 -0.326615 -0.192146 9.76434
1.53 0.00173118 -0.002181 -0.00858998 -0.0717743 -0.193834 9.78931
1.531 -0.00890783 -0.0229917 -0.00709166 -0.273014 -0.636915 10.0413
1.532 -0.0166409 0.00346621 0.00265538 -0.0885074 -0.385953 9.76984
1.533 -0.0049908 -0.0108776 -0.00393532 -0.285866 -0.196375 9.90151
1.534 -0.00584905 -0.0125988 0.0190245 -0.163121 -0.232466 9.98752
1.535 -0.00470811 0.00973411 0.00410738 -0.171986 -0.116697 9.66399
1.536 -0.0100706 0.0104011 -0.00469289 -0.00407389 -0.094287 9.92211
1.537 -0.00786611 0.0145032 -0.00483092 -0.32893 -0.153733 9.93323
1.538 0.0026869 0.0263901 0.00961702 -0.268828 -0.256793 10.018
1.539 0.0193354 0.019903 -0.00233869 -0.179842 -0.256825 9.72915
1.54 0.00732951 -0.00607383 0.00267034 -0.161584 -0.384285 9.91247
1.541 -0.0214712 -0.00149904 -0.00340795 -0.203009 -0.215641 9.85909
1.542 0.000404953 0.0281046 0.000876051 -0.146052 -0.297087 9.82729
1.543 -0.00130789 -0.00366695 0.00106338 -0.301782 -0.167255 9.84576
1.544 -0.00411715 -0.021051 0.00191213 -0.340906 -0.0741197 9.85667
1.545 0.000601573 0.00529266 0.0022193 -0.356034 -0.373593 10.1133
1.546 -0.00299658 0.0016066 -0.00835602 -0.260873 -0.0803002 9.68504
1.547 0.0063246 0.00217898 -0.00653887 -0.161887 -0.168288 9.82654
1.548 -0.0287723 0.02794 0.00874977 -0.40902 -0.0977677 9.71205
1.549 0.00910258 -0.0034669 0.0053594 -0.333815 -0.134548 10.0072
1.55 0.000841003 -0.00272883 0.0025758 -0.326205 -0.37098 9.8062
1.551 0.00937174 0.0201338 -0.0138663 -0.181764 -0.256632 10.0494
1.555 -0.000813474 0.0312078 0.00705352 -0.497881 -0.130891 9.96014
1.556 0.000903363 -0.0039421 -0.0196051 -0.119292 -0.181791 9.91111
1.557 -0.010348 -0.00940581 0.00620885 -0.131689 -0.197127 10.0211
1.558 -0.0161065 -0.00132114 -0.00283186 -0.136955 -0.124669 9.95245
1.559 -0.0213 0.0136345 -0.00474867 -0.342837 -0.130998 10.0202
1.56 0.000106921 0.0301796 0.0113675 -0.261846 -0.136077 9.93719
1.561 0.00970811 0.00485504 -0.00460707 -0.15493 -0.220598 9.85456
1.562 0.00480193 -0.00749179 0.00178541 -0.216396 -0.247013 9.65907
1.563 0.00271953 -0.00446725 0.0023731 -0.452009 -0.0772743 9.86124
1.564 0.00347568 0.0210498 0.00638737 -0.424424 -0.0421207 9.9421
1.565 -0.0127983 0.013151 0.000395086 -0.13487 -0.151626 9.96913
1.566 -0.0144284 0.0177407 0.0213143 -0.443629 -0.158272 9.79952
1.567 0.0125267 0.00395411 0.00443154 -0.0673019 -0.0375859 9.85503
1.568 0.00293474 -0.0131738 -0.00535601 -0.240709 0.162728 9.85373
1.569 -0.00759741 0.0101131 -0.00813001 -0.136915 -0.485356 9.80167
1.57 0.0058146 0.00927493 -0.00100874 0.0974922 -0.280574 9.72742
1.571 0.0050272 0.00211109 -0.00442692 -0.13739 0.107 9.75225
1.572 0.0115949 0.0158031 0.00067725 -0.132021 -0.0601749 9.91213
1.573 0.00156641 -0.00444841 -0.00502154 -0.26407 -0.221299 10.013
1.574 -0.00372 -0.00308518 -0.0346583 -0.216982 -0.235334 9.84068
1.575 0.00801541 0.0151472 -0.00277846 -0.540845 -0.0299736 10.0351
1.576 0.00551672 0.0116594 0.000804256 -0.25381 -0.228876 9.72876
1.577 -0.0108415 0.0208471 0.00374082 -0.0350645 -0.156429 10.048
1.578 0.00621043 0.011134 0.0100301 -0.336815 -0.323623 9.81179
1.579 0.00617269 0.0242551 -0.00978856 -0.400017 -0.145569 9.88435
1.58 -0.00512754 -0.0132279 0.00333101 -0.0992384 -0.108948 10.1088
1.581 0.0238027 0.00832339 -0.0223386 -0.395818 -0.154743 9.85885
1.582 0.0117001 -0.00459333 -0.0122773 -0.374751 -0.190882 9.90262
1.583 -0.0173743 -0.00532774 0.00115849 -0.247369 0.0110934 9.89651
1.584 -0.00810306 0.00615706 0.000130766 -0.27692 -0.346914 9.8163
1.585 0.00923969 0.00816789 -0.00769967 -0.348265 -0.226593 9.96945
1.586 -0.0286442 0.00994544 0.00885896 -0.352842 -0.197668 9.8344
1.587 0.0109911 0.0188292 0.0186308 -0.0607919 -0.263461 9.70715
1.588 0.00236381 0.0129069 -0.0214156 -0.260708 -0.107216 9.92733
1.589 -0.00582266 -0.0167833 0.000772401 -0.129705 0.0101714 9.83725
1.59 -0.000188511 0.0250978 -0.00543577 -0.297127 -0.104046 9.82319
1.591 -0.0234521 -0.00735669 -0.00422554 -0.146328 -0.253765 9.97798
1.592 -0.00382037 0.0101526 -0.00792537 -0.364795 0.0425505 9.73098
1.593 -0.00920706 -0.00369353 0.0159737 -0.115481 -0.147487 9.81373
1.594 -0.000214686 0.00801231 -0.00574857 -0.275555 -0.280597 9.85075
1.595 0.00526133 0.0193184 -0.0191649 -0.225653 -0.301147 9.73259
1.596 0.00321418 0.000681515 0.00393492 -0.118602 -0.111634 9.91253
1.597 -0.00301392 0.00615337 0.00518736 0.039209 -0.220702 9.79927
1.598 0.00794443 0.0106684 0.00272635 -0.0653793 -0.163557 9.9913
1.599 -0.0159328 -0.00159971 -0.0149276 -0.154695 -0.262291 9.68571
1.6 0.00316988 0.00578594 -0.00608061 -0.217401 -0.225537 9.9723
1.601 0.00492461 -0.0105661 -0.0042935 -0.0830866 -0.242726 10.0572
1.603 -0.00434939 0.00502721 0.00377459 -0.164804 0.0100388 9.99794
1.604 0.00218588 0.00867236 -0.0203704 -0.304095 -0.189125 9.83714
1.605 0.0165201 -0.00730357 0.00640978 -0.196026 -0.26644 9.9467
1.606 -0.00553626 -0.000508269 -0.00633812 -0.235006 -0.34813 10.0135
1.607 0.0138849 0.00682418 0.00680762 -0.095174 -0.1186 9.67264
1.608 -0.00542034 0.0140219 -0.00120049 -0.341735 0.0233182 9.84309
1.609 -0.00548213 0.0137915 0.00570237 -0.0650833 -0.318904 9.99322
1.61 -0.00246275 -0.00188345 0.0224519 -0.0723929 0.122767 9.72274
1.611 -0.0114496 -0.00387928 0.00689201 -0.445987 -0.127187 9.79585
1.612 -0.0139111 -0.00660992 -0.00649155 -0.170649 -0.215279 9.86201
1.613 0.00776277 0.0161121 0.00560496 -0.120513 -0.11941 9.94537
1.614 -0.00607938 -0.010179 0.0126364 -0.11831 -0.435661 9.87666
1.615 -0.00849247 0.00842607 -0.00565714 -0.403721 0.0311237 10.0459
1.616 -0.000988392 0.0145626 -0.0166778 -0.220603 -0.172052 9.58773
1.617 0.00604436 -0.00842268 -0.00146409 -0.0308015 -0.151483 9.99747
1.618 0.0208621 -0.0140115 0.00216264 0.00673176 -0.00190207 9.79791
1.619 -0.00135071 0.0079302 0.0202709 -0.15171 -0.223965 9.94818
1.62 0.00528215 0.00338597 -0.00271454 -0.27891 -0.186344 9.87914
1.621 -0.000296851 0.0165816 0.0138474 -0.182372 -0.0834042 9.69527
1.622 -0.0171083 -0.00330946 -0.00739115 -0.226556 -0.0771418 9.65216
1.623 -0.0106716 0.0105033 0.00737103 0.051676 -0.449108 9.907
1.624 0.0160467 -0.0028622 0.0103023 -0.186684 -0.132492 9.76877
1.625 -0.00478447 0.00747004 -0.0154304 -0.453513 -0.11398 9.59443
1.627 0.0106771 0.00683957 0.0179703 -0.336419 -0.378146 9.78396
1.628 0.0100533 0.00416393 -0.0116107 -0.257426 -0.241873 9.96196
1.629 -0.000464112 -0.00469013 -0.00645409 -0.198566 -0.145436 10.0449
1.63 -0.019952 0.00196394 -0.00521112 -0.275558 -0.142808 10.0359
1.631 0.0113598 0.0152075 -0.00661459 -0.244747 -0.0991925 10.0123
1.632 -0.00984581 0.011937 0.00655037 -0.27407 -0.238088 9.70041
1.633 0.00864765 0.00972622 0.00596007 -0.211752 -0.354658 9.78734
1.634 0.00934114 0.00945452 0.017497 0.00010095 -0.164666 9.84081
1.635 -0.00551276 0.0204343 0.00422157 -0.2809 -0.210813 9.79433
1.636 0.0119239 0.00181736 -0.0108536 -0.24631 -0.107261 9.81395
1.637 -0.00362165 -0.00731093 -0.00985799 -0.306881 -0.370342 10.0104
1.638 -0.00670743 0.00708835 -0.0039479 -0.394812 -0.163052 9.55035
1.639 -0.00355792 0.0139115 0.00581567 -0.230939 -0.0168843 9.75035
1.64 0.00125607 0.00633826 -4.46539e-05 -0.140419 -0.359995 9.89077
1.641 -0.0123347 0.0234755 -0.00468724 -0.218625 -0.0777372 9.91181
1.642 -0.0111851 0.004994 -0.00602672 0.0681354 -0.144881 9.86054
1.643 -0.0149491 -0.0135012 0.00387214 -0.267654 -0.158937 9.82285
1.644 0.00827685 -0.000723008 -0.0117646 -0.234467 -0.136834 9.81878
1.645 -0.00173472 0.00345191 0.00887117 -0.414664 -0.162987 9.90209
1.646 0.0149729 0.00286009 -0.0031462 -0.441147 -0.137593 9.81567
1.647 0.013927 -0.00770577 -0.00751931 -0.110014 -0.205664 10.0142
1.648 -0.00341212 -0.00116102 0.00503045 -0.215084 -0.0928627 9.72823
1.649 0.00252556 0.0106255 -0.0167897 -0.23582 -0.38677 9.85135
1.65 0.00368074 0.0173782 0.00419952 -0.388463 -0.232343 9.98871
1.651 -0.00678133 0.00918409 0.00464182 -0.237545 -0.0726222 9.77783
1.652 0.01201 0.0145543 -0.0104946 -0.118329 0.113152 9.65848
1.653 -0.00517516 0.0046362 0.00762201 -0.320195 0.0184124 9.79329
1.654 -0.00571303 0.00625422 0.000642349 -0.232463 -0.0640209 9.88867
1.655 0.0148886 0.00520105 0.0138628 -0.211028 -0.285783 9.98134
1.656 -0.00164726 0.0162469 0.0109657 -0.373857 -0.281816 9.71954
1.657 0.00941559 0.0251152 -0.00129797 -0.314865 -0.229875 9.77284
1.658 0.00713685 0.0158118 0.0060911 -0.473754 -0.448295 9.87649
1.659 0.0166349 -0.00910746 0.00447592 -0.250662 -0.221995 9.76659
1.66 0.00359663 -0.0113809 -0.00845502 -0.0178806 -0.454854 9.85007
1.661 -0.00950389 0.00184264 -0.0036268 -0.247893 -0.223358 10.0558
1.662 -0.0172002 0.0174252 0.0130349 -0.308293 -0.15567 9.60873
1.665 -0.0149971 0.00582797 -0.000202356 -0.305096 -0.0321495 9.81351
1.666 0.00128831 0.00480854 0.0104469 -0.225661 -0.204852 9.70265
1.667 0.00164419 0.00887174 0.00559084 -0.375147 -0.413791 9.76198
1.668 -0.000213761 -0.00496046 -0.0060517 -0.113334 -0.0485804 9.70625
1.669 0.0151487 -0.000303363 -0.0112088 -0.44594 -0.256081 9.72338
1.67 0.00602347 -0.00125416 0.0119452 -0.206167 -0.0534026 9.89778
1.671 0.0128116 0.00695829 -0.00869107 -0.300759 -0.391074 9.80504
1.672 0.00231077 0.00434882 0.0263311 -0.31145 -0.0421759 9.59287
1.673 -0.0123029 0.00389458 -0.0148771 -0.294669 -0.238537 9.7697
1.674 0.0130515 0.0205634 -0.0203073 0.0080497 -0.161156 9.68566
1.675 -0.00624523 0.00268513 0.0221569 -0.0740398 -0.18725 9.81348
1.676 0.00435578 0.00209073 0.00699648 -0.238237 -0.125291 10.0818
1.677 0.00145524 0.00370724 0.00662484 -0.113622 -0.0452599 9.92739
1.678 -0.00841134 0.00983657 0.00548588 -0.00146955 -0.217937 9.97509
1.679 0.00124084 0.00680038 -0.0166887 -0.0210201 -0.15703 9.91195
1.68 -0.0127802 -0.0174227 0.00917648 -0.0822577 -0.12831 9.92674
1.681 -0.0127935 0.00311636 -0.0099321 -0.253476 -0.225018 9.54289
1.682 0.0060528 0.00813904 0.0109008 -0.205109 -0.112 9.96401
1.683 0.00826352 -0.00732364 0.00566394 -0.410016 -0.0793589 10.1088
1.684 0.00353399 -0.0106953 0.0083712 -0.0840399 -0.300487 10.0469
1.685 -0.00115851 0.00518756 -0.00368095 -0.386827 -0.293048 9.95367
1.686 0.0135961 -0.00341557 0.00165868 -0.293357 -0.36081 9.91373
1.687 0.0113751 0.00125108 0.00961869 -0.22388 -0.123143 9.75252
1.688 -0.00319221 -0.00421607 0.0088084 -0.102763 0.11454 9.96139
1.689 0.0223578 -0.00543323 -0.0268462 -0.205949 -0.440204 9.99761
1.69 0.0205499 -0.00114087 0.00427172 0.033655 -0.363247 9.76088
1.691 0.0231241 -0.00231064 0.0089477 -0.052948 -0.0649401 10.1075
1.692 0.00796739 0.00711991 -0.00136813 -0.344877 -0.21648 9.74177
1.693 0.00361262 -0.00994307 -0.0117191 -0.194413 -0.287754 9.96098
1.694 0.00610249 0.000338319 0.00504509 -0.27739 -0.0115347 9.9743
1.695 -0.00510377 0.0167793 0.000186087 -0.161487 -0.454205 9.79478
1.696 -0.0120828 -0.02359 -0.00178101 -0.0878763 -0.239164 9.82453
1.697 -0.00721824 0.00702831 -0.00428773 -0.0731434 0.128685 9.6504
1.698 0.00449054 0.0236357 -0.00615751 -0.382462 0.0334443 10.2002
1.699 -0.00517077 0.0198423 0.0119607 -0.261157 -0.0907361 9.90299
1.7 1.93638e-05 -0.00730934 0.00524922 -0.270116 -0.381482 9.93233
1.701 -0.0154556 -0.00624898 0.00540919 -0.264203 -0.245408 9.95252
1.702 -0.00261939 0.0043393 0.0105869 -0.206022 0.0299977 10.0177
1.703 0.00765501 0.00506905 -0.00385359 -0.161227 0.163331 9.66602
1.704 0.0100312 -0.00813143 -0.0185339 -0.225214 -0.0436961 9.88657
1.705 -0.00371598 0.0236127 0.00584678 -0.0816517 -0.396151 9.6755
1.706 -0.00761995 -0.0102815 0.00994812 -0.377979 -0.229345 9.6522
1.707 -0.00830242 -0.0129633 0.00834773 -0.241406 -0.255806 9.91195
1.708 0.00324396 0.0213154 -0.00279306 -0.185544 -0.160537 9.96281
1.709 0.0194793 -0.0125361 -0.00934445 -0.366606 -0.284656 9.97003
1.71 -0.00131758 0.0150086 -0.00198621 -0.240866 -0.387537 9.7762
1.711 0.00260024 0.0166539 -0.00905857 -0.0471978 -0.353366 10.0781
1.712 0.0150598 0.0135929 0.00163971 -0.205593 -0.209472 9.96966
1.713 -0.0168698 0.00409815 -0.00319283 -0.381309 -0.196375 9.80012
1.714 0.011972 0.0251625 -0.0193742 -0.276163 -0.335674 9.9098
1.715 0.00630828 0.00342991 0.00435844 -0.305933 -0.207087 9.85692
1.716 0.00873104 0.00855972 0.0290675 -0.356266 -0.192189 9.75785
1.717 0.01122 0.020467 0.0144925 -0.294324 -0.105382 10.0744
1.718 -0.0066072 0.00257065 -0.00349123 -0.347527 -0.415391 9.97199
1.719 -0.000300082 0.00360836 0.00485807 -0.354109 -0.178637 9.81357
1.72 -0.00651436 0.0152279 0.00277707 -0.316377 0.0407294 9.80735
1.721 -0.0104201 0.00796685 0.00840016 -0.672119 -0.194529 9.81499
1.722 -0.000894115 -0.0105741 0.000820505 -0.38577 -0.0706804 9.82757
1.723 0.000205393 0.0173028 0.0176078 -0.389196 -0.209196 10.0599
1.724 0.00475038 0.00357322 0.00781801 -0.138455 -0.457402 9.83444
1.725 0.00261896 0.00807588 -0.0120564 -0.479151 -0.350044 9.82173
1.726 0.01867 0.0268697 -0.00272986 -0.338254 -0.175916 9.72502
1.727 0.0111194 -0.00620997 0.003922 -0.326998 -0.255602 9.92518
1.728 -0.00703322 0.0112015 -0.0101711 -0.228618 -0.122869 10.0145
1.729 -0.00197262 0.0121635 -0.00311566 -0.129811 0.00343224 9.91414
1.73 -0.0182184 0.00985453 -0.0106421 -0.200897 -0.254056 9.65376
1.731 -0.0328553 0.00498191 -0.019299 -0.222888 -0.234112 9.8091
1.732 -0.0138496 0.0158484 0.000901876 -0.214508 -0.189822 9.83531
1.733 0.0179315 0.0079294 0.000462418 -0.29981 -0.305343 10.0169
1.734 -0.00630826 0.000752478 0.00122585 -0.0977581 -0.291371 9.80016
1.735 0.0213551 0.0267937 -0.0033885 -0.313958 -0.0607303 9.79555
1.736 0.00195496 -0.00641599 -0.00621111 -0.518319 -0.316018 10.0017
1.737 0.00227977 -0.00353581 0.00603648 -0.302482 -0.212343 10.0812
1.738 0.015556 -0.0130716 0.0210403 -0.245643 0.102788 9.93508
1.739 0.000141004 -0.0053309 -0.0187261 -0.0126113 -0.101941 9.70423
1.74 -0.0143976 0.0011625 -0.000626931 -0.469221 -0.563487 9.87581
1.741 -0.00261464 0.00934315 0.0115532 -0.257467 -0.185261 9.8253
1.742 0.00256001 0.00703852 0.0180334 -0.0493616 -0.414288 9.80726
1.743 -0.00684197 0.00663578 0.00988183 -0.171032 -0.128242 9.75862
1.744 -0.00424729 0.00198133 -0.00853772 -0.342838 -0.243487 9.94107
1.745 -0.0220624 -0.00427367 0.0168722 -0.22564 -0.236414 9.64846
1.746 0.00775254 0.000899763 -0.00781944 -0.317216 -0.249231 9.82759
1.747 -0.00911223 0.0211539 0.0143429 -0.404212 -0.104095 9.71552
1.748 -0.0112803 -0.00285109 0.000607033 -0.324052 -0.206577 9.64474
1.749 0.0023594 0.0202969 0.0190564 -0.0645147 0.118097 9.84466
1.75 0.00310568 0.00780647 -0.00741548 -0.363029 -0.0434203 9.89847
1.751 -0.020155 -0.00360825 0.0029368 -0.19182 -0.0194881 9.82589
1.752 0.00807299 -0.00614919 -0.00374629 -0.424947 -0.211731 10.0199
1.753 0.0111631 0.0101605 0.0150983 -0.199322 -0.0776047 9.88433
1.754 0.00787783 -0.00016313 0.00350779 -0.293028 -0.112907 9.96777
1.755 -0.0247405 0.00504634 -0.00707942 -0.404391 -0.110853 9.77321
1.756 -0.00608793 0.00671691 -0.00771376 -0.106494 -0.300899 9.98715
1.757 0.000308789 0.039021 0.00875981 -0.0856212 -0.337162 9.74251
1.758 0.000486247 0.018458 0.00310697 -0.186356 -0.263456 9.93519
1.759 -0.0166897 0.00570284 0.0130393 -0.131427 -0.285729 9.86215
1.76 0.00411354 0.0078308 0.00220922 -0.306258 -0.186163 9.7606
1.761 -0.007611 -0.012531 0.00757621 -0.240161 -0.302672 9.80159
1.762 0.0147424 0.0233075 -0.00694289 -0.264316 -0.23324 9.92933
1.763 -0.013827 0.0124619 -0.00585636 -0.229518 -0.136595 9.89646
1.767 0.00423533 -0.00608662 0.00807908 -0.185846 -0.198777 10.0019
1.768 -0.0105325 -0.00246848 0.0137118 -0.387593 -0.193458 9.90973
1.769 -0.0236123 -0.00065491 -0.00164868 -0.0905902 -0.0593773 9.78623
1.77 0.0108138 0.00920992 -0.00589909 0.048767 -0.16052 10.0018
1.771 -0.00621541 0.0116687 -0.0171705 -0.194029 -0.0552876 9.80125
1.772 -0.0114482 0.00487527 -0.00144796 -0.148114 -0.180026 9.71593
1.773 0.0103836 0.0124255 0.017229 -0.429667 -0.0105737 9.92788
1.774 0.00486228 0.0219657 -0.00614317 -0.464714 -0.062354 9.62619
1.775 -0.00695747 0.00464816 -0.0205815 -0.475172 -0.131428 9.91277
1.776 -0.00912114 0.00816515 0.00170038 -0.450205 -0.0531484 10.0856
1.777 0.0130009 -0.00260486 -0.00550471 -0.0400483 0.0572777 9.76521
1.778 -0.00524639 -0.00154541 -0.0106775 -0.338092 -0.256348 9.93603
1.779 0.0132979 0.0321054 -0.00131682 -0.149615 -0.274306 9.76656
1.78 -0.00730867 -0.00491422 -0.00890903 0.0874949 -0.0865013 9.73169
1.781 0.00336821 0.0105764 -0.00278184 -0.343033 0.0360971 9.85932
1.782 -0.0169706 0.00633517 0.012193 -0.327372 -0.259987 10.004
1.783 0.00835358 0.0199753 -0.00341006 -0.135357 -0.190204 10.0027
1.784 0.0134347 0.0077388 -0.0131495 -0.0871947 -0.280809 10.0702
1.785 0.0199084 0.000997881 0.00832695 -0.429641 -0.311529 9.98209
1.786 0.000824705 0.00527947 -0.0090877 -0.370155 -0.10856 9.66934
1.787 0.00589333 0.0157988 -0.0201633 -0.0711173 -0.323174 9.83729
1.788 -0.0119023 -0.00734801 0.0153595 -0.463404 -0.128267 9.73983
1.789 0.00378864 -0.00358047 -0.000511366 -0.291523 -0.0831711 9.95621
1.79 0.0164191 0.00882541 0.0184458 0.113804 -0.222989 9.8069
1.791 0.000846107 0.0273859 -0.00334404 -0.146521 -0.160107 9.84017
1.792 -0.0151167 0.0143344 -0.00862299 -0.288784 -0.15398 9.61715
1.793 0.00427628 0.00357829 0.00518656 -0.410011 -0.267652 9.80254
1.794 -0.000600308 -0.0158696 0.00954461 -0.409778 -0.461199 9.80838
1.795 0.0118239 0.0148489 0.0134472 -0.0734819 -0.324444 10.0918
1.796 0.00435799 0.00110943 -0.00890366 -0.300666 0.0102326 9.98189
1.797 0.00720934 0.0129543 0.00699281 -0.27693 -0.246667 9.79306
1.798 -0.00423716 0.00852414 -0.00335148 -0.371041 -0.112954 9.67391
1.799 0.012386 0.00847093 -0.00577328 0.0400996 -0.022606 9.91923
1.8 0.00140284 0.0156225 0.00410515 -0.423015 -0.0217348 10.1837
1.801 0.00609678 0.0253371 0.0199863 -0.289516 0.0424155 10.0593
1.802 0.0108189 0.00465411 0.013117 -0.219205 -0.157192 10.0657
1.803 -0.00930371 0.0224288 -0.0205256 -0.131358 -0.0963711 9.74175
1.804 -0.0115463 0.0151856 -0.00328928 -0.148885 -0.103529 9.74617
1.805 -0.00674507 0.000204906 -0.00892679 -0.0982278 -0.181053 10.0225
1.806 -0.00276216 0.00720373 -0.00485327 -0.154172 -0.191204 9.69977
1.807 0.0102451 0.0136883 0.00603138 -0.310516 -0.358106 9.95451
1.808 0.00141873 -0.004019 -0.00722978 -0.387291 -0.030369 9.74944
1.809 -0.00405048 0.00676855 -0.00261851 -0.0397378 -0.137856 9.87018
1.81 0.00247481 -0.0179901 0.00422025 -0.20944 -0.373774 9.98125
1.811 0.00732835 0.0122242 0.0154686 -0.191711 -0.251095 10.0619
1.812 -0.0069979 0.00778136 -0.0121483 -0.238845 -0.160454 9.75874
1.813 -0.00545162 0.0122172 0.00636156 -0.221849 0.103912 9.92295
1.814 0.00854281 0.0361075 -0.00397818 -0.21574 -0.135828 9.90556
1.815 -0.000574149 0.0208074 0.00919627 -0.140763 -0.281683 9.90825
1.816 0.00443638 -0.00160558 -0.00872017 -0.288996 -0.162147 9.93682
1.817 -8.44591e-05 0.00385214 0.0180508 -0.0872228 -0.0829548 9.95215
1.818 0.00788803 0.0160234 0.00653905 -0.270959 -0.210338 9.97051
1.819 0.00097871 0.0123521 -0.012651 -0.18618 -0.115854 9.87093
1.82 -0.0048919 -0.00506072 0.0134147 -0.155513 -0.0872955 10.0684
1.821 0.00881704 0.020557 0.0105122 -0.382087 -0.0873293 9.90756
1.822 -0.00132243 0.00425756 -0.00971508 -0.175607 -0.0722455 9.89419
1.823 0.00385456 0.00481933 -0.0148183 -0.187108 -0.190631 9.68013
1.824 0.0120014 0.00356681 0.00521742 -0.27674 -0.25573 9.931
1.825 0.00671507 -0.0117866 -0.018251 -0.308123 -0.517096 9.97966
1.826 0.0028568 0.0115016 0.00720821 -0.0996941 -0.175069 9.82115
1.827 -0.0152235 0.025279 0.00691616 -0.303169 -0.263616 9.7944
1.828 0.00475436 0.0114001 0.00353572 -0.281674 -0.322409 9.82502
1.829 0.0048857 0.0229218 -0.000577712 -0.0910314 -0.183107 9.82233
1.83 0.0186209 0.0133796 -0.00448565 0.110859 -0.229143 9.76605
1.831 -0.0133534 0.0186587 0.00385405 -0.166393 -0.0679155 9.77483
1.832 0.00621842 0.0152386 -0.00171709 -0.182042 -0.164171 10.0712
1.833 -0.00718472 0.0178478 0.000941988 -0.0533782 -0.084546 9.91308
1.834 0.0198934 -0.00431273 0.0182122 -0.404227 -0.314731 9.70566
1.835 0.00822972 -0.00494028 0.00868946 -0.232748 -0.105344 9.67956
1.836 0.0174585 0.00533476 0.00626385 -0.1453 -0.0800872 9.58438
1.837 0.0167171 0.0120745 -0.0089732 -0.239628 -0.287292 10.066
1.838 -0.0114657 0.019162 0.000691354 -0.388237 0.0904452 9.93925
1.839 -0.000609868 0.0185104 -0.00704053 -0.0594111 -0.0692182 10.1123
1.84 -0.0041548 0.00374693 0.000797017 -0.0922776 -0.169858 9.91971
1.841 -0.00671311 0.00322972 -0.0056521 -0.351957 -0.232641 9.68017
1.842 -0.00226467 -0.0122986 -0.00986853 -0.412345 -0.27945 9.83123
1.843 -0.00416529 0.00240627 -0.0047934 -0.413266 -0.189534 10.0413
1.844 -0.00624785 0.0129308 -0.0139229 -0.428549 -0.176736 9.77491
1.845 -0.0107587 -0.0146778 -0.0216951 -0.32904 -0.269365 9.82162
1.846 -0.00767858 0.0141635 -0.00415431 -0.132855 -0.237123 9.95751
1.847 0.000547274 -0.00652635 0.0101562 -0.0650544 -0.0962712 9.83065
1.848 -1.14275e-05 -0.00713133 0.00163006 -0.29442 -0.199566 10.0399
1.849 -0.0133501 -0.00121911 0.0164163 -0.164425 -0.3318 9.772
1.85 -0.0139685 0.0040389 -0.00182643 -0.296872 -0.144337 10.0254
1.851 -0.00271076 0.0192181 -0.00401061 0.0070266 -0.185599 9.7867
1.852 -0.000783614 0.0114386 0.00914247 -0.370399 -0.248948 9.70701
1.853 0.00950878 0.00161913 -0.00171393 -0.239747 -0.115352 9.82057
1.854 -0.00874324 0.0105965 0.0067091 -0.202916 -0.116498 9.77532
1.855 -0.00146653 0.00283137 0.0116165 -0.498446 -0.407383 9.71975
1.856 -0.00386205 0.0127419 0.000119229 -0.16065 -0.068493 10.0096
1.857 -0.0311767 -0.00223681 0.00757302 -0.183981 -0.17444 9.87227
1.858 0.0119573 -0.0170897 0.00252853 -0.107285 -0.141992 10.013
1.859 0.00343452 0.0112797 -0.0018669 -0.398792 -0.329335 9.93166
1.86 -0.000901142 0.00281065 -0.0136352 -0.334154 -0.221601 9.8773
1.861 -0.011011 0.0113478 -0.00675347 0.000165455 -0.0517247 9.86717
1.862 0.0148434 0.00486497 -0.00703046 -0.28513 0.0606647 9.88222
1.863 -0.00250939 0.0200365 0.0040885 -0.33317 -0.360043 9.50681
1.864 -0.00296566 -0.000856389 -0.0088553 -0.157563 0.00869754 9.80539
