t wx wy wz ax ay az

0.0 0.00118964 0.012516 -0.0108972 -0.213494 -0.0687522 9.92369
0.001 -0.0121308 0.00243902 -0.0144287 -0.208243 -0.199117 10.096
0.002 0.00234129 0.0188281 -0.0160361 -0.443184 -0.0900252 9.85444
0.003 0.0136581 -0.0130764 -0.00760387 -0.0503038 -0.16125 9.76641
0.004 -0.0113243 -0.00590811 -0.00512712 -0.330462 -0.174531 9.88537
0.005 0.00378478 0.00598726 -0.000618833 -0.0404924 -0.053435 9.84453
0.006 0.00610694 0.00425971 -0.00310425 -0.244949 -0.0370696 9.87277
0.007 -0.00363612 -0.00641911 0.00418464 -0.179558 0.0313914 9.9174
0.008 0.00298635 0.00194534 -0.0188894 -0.232425 -0.238852 9.9455
0.009 -0.0112721 0.00928434 -0.0114536 -0.239042 -0.220984 9.77997
0.01 -0.00752275 0.00169671 -0.0107029 -0.112119 -0.290135 9.97034
0.011 0.0106885 0.000201211 -0.0193371 -0.178372 -0.356114 9.81001
0.012 -0.00488472 -0.00132867 0.0120168 -0.355309 -0.389466 9.74621
0.013 0.00808754 0.0211365 0.0258504 -0.193144 -0.220646 9.57058
0.014 0.0226924 0.0242578 -0.00587611 -0.154888 -0.305878 9.87052
0.015 -0.007789 -0.004487 0.00755352 -0.199136 -0.168805 10.0169
0.016 0.00728528 0.0092678 -0.00551483 -0.366412 0.11466 10.0001
0.017 -0.020102 0.00106462 0.00288616 -0.317086 -0.269516 9.8339
0.018 0.00554166 -0.000813172 -0.0113363 -0.199178 -0.150964 9.89829
0.019 0.00608253 0.00856511 -0.00100036 -0.165097 -0.484334 10.0403
0.02 0.0110574 0.0141355 0.0181977 -0.152792 -0.157559 9.71463
0.021 0.0027616 -0.00351669 0.0038443 -0.314982 -0.196035 9.94859
0.022 0.0138329 0.0271081 -0.011856 -0.128664 -0.0710397 9.94684
0.023 -0.00603426 0.0154276 -0.0235524 -0.517392 -0.234141 9.91962
0.024 -0.00909131 0.0139742 0.0044515 -0.0644321 -0.277954 9.95001
0.025 -0.00532548 0.017015 -0.00692667 -0.300204 -0.316393 9.973
0.026 -0.0273021 0.00626734 -0.000248733 -0.234514 -0.0749008 9.93953
0.027 0.0180985 0.000928003 -0.00207415 -0.28558 0.0403955 9.88318
0.028 -0.00982303 0.00877748 0.00186507 -0.320233 -0.00501039 9.70205
0.029 -0.0020877 0.00378654 0.00421965 -0.285948 -0.239141 9.85713
0.03 0.0156212 -0.0027243 0.00111969 -0.249542 -0.0459532 9.80494
0.031 -0.00465334 -0.00775558 -0.00277444 -0.131974 -0.0762966 9.58946
0.032 -0.00763704 -0.00343051 0.0124351 -0.200976 -0.166869 9.78391
0.033 0.00889293 0.0212177 -0.00141444 -0.260292 0.0510588 10.0117
0.034 0.0111867 0.00961771 0.00408174 -0.179311 -0.208828 9.91937
0.035 0.00273492 0.000558285 0.0184627 -0.274792 0.052909 9.89212
0.036 0.00838302 0.00175327 0.0102161 -0.272239 -0.386269 9.8475
0.037 0.00355498 -0.00487543 0.0103958 -0.340214 -0.0668539 9.90386
0.038 -0.000166063 0.00584376 0.0140617 -0.275433 -0.197583 9.87384
0.039 0.00133209 0.00448485 0.00489477 -0.208408 -0.112954 9.83869
0.04 0.021776 0.0013505 -0.00697126 -0.0460775 -0.453462 9.76248
0.041 0.00113913 0.00533574 0.0135918 -0.300098 -0.212174 9.73966
0.042 -0.00207627 0.00727571 -0.00404285 -0.22694 -0.181294 10.115
0.043 -0.00976186 0.00791333 -0.00275052 0.0325484 -0.0296225 10.0569
0.044 0.0100545 -0.00781641 0.00604225 -0.0938742 0.00636222 10.0037
0.045 -0.00261198 0.024541 -0.01882 -0.342542 -0.0597264 9.95081
0.047 -0.00990429 0.00224588 0.00880782 -0.400356 -0.258696 9.89081
0.048 0.00262135 0.00813555 -0.0128487 0.0725932 -0.1497 9.78646
0.049 -0.0210186 -0.00987833 0.0154624 -0.100045 -0.402748 9.92118
0.05 0.00372519 -0.0109476 0.00469385 -0.19596 -0.212254 9.86266
0.051 -0.0259939 0.022421 -0.00235188 -0.0918087 -0.243456 9.96199
0.052 0.00656794 -0.00590311 0.00691671 -0.23962 -0.215026 9.89612
0.053 -0.0116023 0.0117847 0.00568152 -0.161161 0.0570988 9.64502
0.054 -0.00646337 0.0201267 0.00698192 -0.229541 -0.210213 9.73236
0.055 -0.0058726 0.00401746 -0.0022084 -0.477813 -0.0833795 9.7402
0.056 0.0259976 -0.0054598 -0.0128581 -0.0586731 -0.149385 9.98356
0.057 0.0155641 0.00573226 -0.000296363 -0.310683 -0.542016 9.96221
0.058 0.00299457 -0.00164337 -0.0142227 -0.20596 -0.278199 9.72547
0.059 -0.0208084 -0.00418505 0.0185549 -0.0926727 -0.122416 9.95539
0.06 0.0045884 -0.0159464 0.00280667 -0.477761 -0.247187 9.942
0.061 0.00713 -0.0150326 -0.0174562 -0.389615 -0.28641 9.81427
0.062 -0.00126765 0.0137852 -0.00163524 -0.241401 -0.394522 9.83577
0.063 -0.0161387 -0.0163786 -0.001203 -0.126106 -0.0524284 9.91252
0.064 -0.00219412 -0.0135007 -0.00124087 -0.209131 -0.286278 10.0051
0.065 0.00762107 0.0232483 -0.0134611 -0.34386 -0.198713 9.7607
0.067 -0.0120898 0.00946106 0.0106224 -0.196706 -0.0692237 9.79733
0.068 0.00685553 0.0109492 0.00656003 -0.254662 -0.232023 9.60585
0.069 -0.0194537 0.00708628 -0.00673347 -0.481719 -0.317535 9.79135
0.07 -0.0108422 0.0198481 0.00550308 -0.14234 -0.0699348 9.94683
0.071 0.00544156 0.0135711 0.0128925 -0.235828 -0.00601285 10.2222
0.072 -0.000715984 0.0118615 -0.0151094 -0.0564141 -0.0442539 9.92952
0.073 -0.00622823 0.00934995 0.000780163 -0.150729 -0.0911572 9.62953
0.074 -0.00356241 0.00525366 -0.0116161 -0.155257 -0.0579942 9.73121
0.075 -0.0039636 0.000196583 -0.0110633 -0.361119 -0.0138671 9.93038
0.076 0.0144624 -0.00825623 -0.00560894 -0.245633 -0.21985 9.85941
0.077 -0.00700705 0.00695354 0.000526823 -0.0971199 -0.343467 9.94033
0.078 0.00755309 -0.0192049 0.00986746 -0.188308 -0.181055 9.92506
0.079 -0.0108464 -0.00247434 0.00276653 -0.133843 -0.157784 9.95991
0.08 0.00875825 0.00177293 -0.00431718 -0.237025 -0.140878 9.95531
0.081 0.0112992 0.000660377 -0.000234128 -0.159366 -0.163661 9.67557
0.082 -0.02124 0.0164302 -0.0112453 -0.222577 0.078479 9.8596
0.083 0.00188694 -0.00189661 -0.0108062 -0.208032 -0.0831124 10.1343
0.084 -0.00926999 0.0171584 0.00945416 -0.16109 -0.141436 9.95728
0.085 -0.00705447 0.00625025 0.00446909 -0.0697417 -0.0184145 10.0607
0.086 -0.00877448 0.000411673 -0.00259089 -0.239352 -0.312356 9.87517
0.087 0.0107287 0.00778288 0.00295704 -0.31222 -0.171836 9.64153
0.088 -0.0131616 0.0181739 -0.0042586 -0.11349 -0.0151362 9.96529
0.089 -0.0217454 -0.015319 -0.00836267 -0.0977115 -0.131193 9.79999
0.09 -0.0138709 0.00487289 -0.0158662 -0.23795 -0.202416 9.9051
0.091 -0.00406772 0.00949141 0.0132708 -0.129892 -0.366407 9.93419
0.092 -0.000874303 0.0135581 -0.019602 -0.225689 -0.195625 10.1489
0.093 0.0127947 0.0162025 -0.0123358 -0.165405 0.0114701 10.0753
0.094 -0.0153352 0.00867817 -0.00296466 -0.323882 -0.325969 9.67961
0.095 -0.00121351 -0.000741163 -0.00694544 -0.164321 -0.304775 9.87184
0.096 -0.00683274 -0.000379816 -0.00643986 -0.303045 -0.276456 9.79178
0.097 -0.00958405 0.00747696 -0.0121178 -0.348213 -0.0476436 9.91599
0.098 0.00555962 -0.00519409 -0.0163986 -0.30694 -0.23469 10.1206
0.099 0.00893629 0.0039254 -0.00810837 -0.341053 -0.0112326 9.90901
0.1 0.00580039 0.0206592 -0.00151541 -0.199434 -0.272162 10.1602
0.101 -0.00473916 -0.00202262 -0.0116089 -0.322846 -0.103493 9.92288
0.102 -0.00674726 0.00591464 -0.010807 -0.0681288 -0.323869 9.95694
0.103 -0.00377034 0.0203875 -0.00433422 -0.355445 -0.0626356 9.94769
0.104 0.0118499 -0.00436343 0.00458138 -0.355176 -0.204927 10.1081
0.105 0.00795549 0.0199802 0.000576898 -0.335473 -0.154866 9.79469
0.106 0.0135177 -0.00455449 -0.0231284 -0.266549 -0.135161 9.92571
0.107 0.0212443 -0.00214163 0.0129836 -0.0616803 -0.191617 9.78485
0.108 0.0124673 -0.007815 0.025296 -0.267361 -0.292581 9.74604
0.109 0.00755031 -0.0195438 -0.0126169 -0.358019 -0.20295 9.8358
0.11 -0.0240203 0.0121588 0.00192833 -0.455807 -0.145903 9.98176
0.111 -0.0219557 -0.00278388 0.00486174 -0.192813 -0.00207172 9.79026
0.112 0.0161326 0.00626313 0.00502764 -0.374793 -0.137306 9.97885
0.113 -0.0129623 -0.00248481 -0.0106307 0.00537678 -0.388425 10.0437
0.114 0.00972348 0.0230378 -0.00171912 -0.132046 -0.237513 9.86063
0.115 0.0118105 0.0215074 0.00295501 -0.137769 -0.0892766 10.0238
0.116 0.00417774 0.00990691 0.0190114 -0.338438 -0.175227 9.70841
0.117 -0.0194968 0.00257053 -0.00330184 -0.465959 -0.28096 10.031
0.118 -0.00398458 -0.00570476 -0.00115232 -0.368242 -0.214583 9.96023
0.119 0.0189381 0.00925187 0.00442088 -0.159743 -0.149181 9.81773
0.12 -0.0207567 0.0103516 -6.38822e-05 -0.345476 -0.249641 10.001
0.121 -0.0235902 -0.0182243 0.00737203 -0.412625 -0.301655 9.68713
0.122 0.00417397 -0.00701632 -0.0086131 -0.357564 0.025457 9.92473
0.123 -0.000865607 0.0200352 -0.00767564 -0.370803 -0.0432455 9.868
0.124 -0.011405 -0.0115796 -0.0132916 -0.16415 -0.294013 9.83459
0.125 0.00311433 -0.00682995 -0.00405277 -0.259183 -0.417071 9.81057
0.126 -0.0144786 0.00369216 -0.0199018 -0.160581 -0.247541 9.83095
0.127 -0.00456041 0.0195242 -0.00525404 -0.259518 -0.399342 9.99929
0.128 0.0101561 0.00237977 0.0128465 -0.326589 -0.12728 10.0124
0.129 0.0266047 0.0200612 0.00544411 -0.0189629 -0.132124 9.9314
0.13 -0.00507368 -0.00694309 -0.0166213 -0.386005 -0.0884894 9.95372
0.131 0.0151283 -0.00870297 0.0147687 -0.168229 -0.0652733 9.92835
0.132 0.00942536 -0.00144643 -0.00139876 -0.307088 -0.3132 9.8659
0.133 -0.00620484 0.0121346 -0.000629141 -0.305634 -0.218532 9.87689
0.134 -0.0103957 0.00548018 -0.00992684 -0.176447 -0.33236 9.94993
0.135 -0.0238782 0.0128951 0.00183929 -0.197608 -0.180788 9.9777
0.136 -0.00710619 -0.00615287 -0.00229068 -0.247446 -0.00433305 9.9471
0.137 0.00301594 -0.00806967 -0.0123144 -0.302368 -0.243644 9.87072
0.138 -0.00306438 0.0190837 -0.00395793 0.00396733 -0.0770025 9.8154
0.139 0.00200714 0.000448491 -0.0111934 -0.322704 -0.324801 9.61806
0.14 0.00952672 -0.0120313 -0.00429942 -0.300245 -0.390655 9.89733
0.141 -0.00611219 0.0169084 0.00166534 -0.160444 -0.17421 9.91863
0.142 -0.0162718 0.00177833 -0.0081581 -0.196516 -0.293875 9.92233
0.143 0.00691269 0.0175588 0.00443997 -0.207621 -0.154861 10.0001
0.144 -0.00907156 0.00798842 0.00561743 0.0669368 -0.14072 9.82302
0.145 -0.00541987 0.00753426 0.00743121 -0.247486 -0.162549 9.74975
0.146 0.00764624 0.00224999 -0.0135156 -0.347092 -0.176526 9.74716
0.147 -0.0162675 0.0265812 0.00542657 -0.310311 -0.366879 9.85959
0.148 -0.0113577 0.0103676 0.00432582 -0.28975 -0.288696 9.9003
0.149 0.00119261 -0.00692409 -0.00441218 0.128449 -0.274386 9.80999
0.15 -0.0111407 0.023917 0.0113369 -0.359434 -0.273953 9.86044
0.151 -0.00557525 0.0108208 -0.000617047 -0.334878 -0.111825 9.8495
0.152 0.00557679 -0.000970851 0.0113436 -0.340051 -0.0258453 9.6864
0.153 0.00641548 -0.00715019 0.0024793 -0.406727 -0.162207 9.85004
0.154 0.00151328 -0.000285577 -0.000146042 -0.178133 0.205847 10.0068
0.155 0.00338861 0.00838607 0.0160794 -0.102928 -0.0765308 9.69543
0.156 -0.000306947 0.00608507 -0.0033644 -0.216639 -0.194415 10.1
0.157 0.0014707 0.000838268 0.00782067 -0.178592 -0.23822 9.85594
0.158 0.0130159 -0.00330873 -0.00739886 -0.123683 -0.263654 9.62464
0.159 -0.00355055 0.007725 -0.00317944 0.0247667 -0.279381 9.88198
0.16 0.00168997 0.0115982 0.0083359 -0.2816 0.0487354 9.91034
0.162 0.00148859 -0.00528926 -0.000981505 0.125991 -0.185692 9.94689
0.163 0.0163021 -0.0105716 -0.00194862 0.0536695 -0.19822 9.83956
0.164 0.0167715 -0.00188487 0.00769538 -0.305242 -0.102321 9.93999
0.165 0.0278135 0.0155882 -0.0116747 -0.29949 -0.301801 9.8
0.166 -0.000789034 0.00951282 -0.00942226 -0.266078 0.060561 9.91563
0.167 -0.0330898 0.00158604 0.00512335 -0.487322 -0.0401865 9.76119
0.168 -0.00804632 -0.00121439 -0.00820751 -0.246058 -0.174528 9.58685
0.169 -0.00651246 -0.00200882 -0.0115739 -0.00686415 -0.308524 9.50722
0.17 0.00121911 0.0252408 -0.0162047 -0.204405 -0.155115 9.98386
0.171 -0.0123175 0.0064757 0.00629165 -0.383151 -0.168841 9.79344
0.172 -0.00616177 0.0112985 0.0165486 -0.273067 -0.175228 9.85675
0.173 0.00184146 0.000343838 0.00815748 -0.24638 -0.0234151 9.78311
0.174 0.0062726 0.0103135 0.0135834 -0.370827 -0.319143 9.97637
0.175 0.00941861 0.00537148 0.00163894 0.00628732 0.0332055 9.78297
0.176 0.000787213 0.00836929 0.00133268 -0.241629 -0.156546 9.86212
0.177 -0.0126694 0.0167505 -0.00677498 -0.126903 -0.16485 9.87232
0.178 -0.00520332 0.00579764 -0.00197913 -0.0987378 -0.233354 9.80466
0.179 -0.01025 0.0112718 0.00612065 -0.231831 -0.0333772 9.77447
0.18 -0.000830597 -0.0232212 -0.014592 -0.227927 -0.0171171 9.59598
0.181 0.0103036 0.0131472 -0.0134047 -0.0855864 -0.164783 9.7269
0.183 -0.00756332 -0.00969824 0.00185948 -0.506264 -0.117013 9.79111
0.184 0.0213237 0.00482643 0.0119847 -0.107189 -0.0802849 9.77052
0.185 0.00423809 -0.0159667 -0.0167147 -0.197503 -0.0832852 9.86131
0.186 0.00726846 0.00482493 0.0127712 -0.243148 -0.0328327 9.78822
0.187 -0.00591261 0.00344214 -0.00505476 -0.330745 -0.268081 9.69557
0.188 0.000747591 0.0292868 -0.00299879 -0.151638 -0.226612 9.86499
0.189 -0.0286527 0.0149563 -0.00779229 -0.0445792 -0.285015 9.94467
0.19 0.0172335 0.0101781 0.00154243 -0.223792 -0.266776 9.84133
0.191 -0.0162024 0.000759706 -0.00494062 0.0674815 -0.09641 9.8255
0.192 0.0156154 -0.000870619 -0.0118559 -0.452945 -0.125147 10.0203
0.193 -0.0032785 0.0136916 0.0129227 -0.186009 -0.406177 9.8904
0.194 -0.0039842 -0.00169345 0.00152913 -0.222536 -0.0572973 9.8963
0.195 -0.000584677 0.0022608 0.000632136 -0.219206 -0.0875383 9.63386
0.196 0.00311474 0.0131018 -0.00063227 -0.329239 -0.22029 9.68822
0.197 -0.00186548 -0.0132775 0.0067685 -0.254275 -0.175756 9.82146
0.198 0.0185864 0.0082853 0.00847587 -0.0998618 -0.465646 9.82841
0.199 -0.00409136 0.0104739 0.0173084 -0.256702 -0.139768 9.98013
0.2 0.0109249 0.0210661 -0.0166272 -0.296569 -0.0696743 9.65387
0.201 -0.0113845 -0.00918295 -0.0100477 -0.245905 -0.362352 9.74696
0.202 -0.00948264 -0.0175582 -0.00996089 -0.0103471 -0.360347 9.83017
0.204 0.0013192 0.00353774 0.004621 -0.435691 -0.028573 9.91482
0.205 -0.0106033 0.00814206 0.0174772 -0.156592 -0.262722 9.79429
0.206 -0.00898255 0.00884746 0.0142758 -0.165794 -0.10622 9.81771
0.207 0.00308788 -0.00145293 0.0157107 -0.029879 -0.313652 9.67808
0.208 0.0119215 0.00856718 0.00310506 -0.0877175 -0.172269 9.87651
0.209 -0.017968 0.00410279 -0.0163042 -0.144338 -0.0305471 9.83669
0.21 -0.01094 0.015983 0.0203529 -0.301631 -0.330209 9.93383
0.211 0.0258486 -0.00630255 -0.000157216 -0.414159 -0.233173 9.79351
0.212 -0.0169984 0.015766 -0.00672255 -0.311507 -0.143717 9.7084
0.213 0.00105513 0.0180603 0.00823617 0.0702492 -0.25087 10.0414
0.214 -0.00311829 0.00168704 -0.00385922 -0.361626 -0.0996107 9.92376
0.215 -0.005155 0.00598489 0.00126929 -0.43753 -0.125999 9.84649
0.216 0.00618986 -0.00104752 -0.0077925 0.0352292 -0.270472 10.0243
0.217 -0.00969886 -0.00862458 0.00797843 -0.301445 -0.227064 9.98775
0.218 -0.0102882 0.00204825 -0.00539282 -0.243577 -0.230354 9.94707
0.219 0.0109768 0.014949 -0.00266944 -0.206605 -0.284787 9.71167
0.22 -0.0097274 0.00918443 0.0198047 -0.13877 -0.227381 9.70261
0.221 0.00536556 -0.0194031 -0.0112611 -0.194032 -0.220531 10.0115
0.222 -0.00771307 0.0141516 -0.00321554 -0.294323 -0.157815 9.77175
0.223 -0.0153555 0.012539 -0.029695 -0.404285 -0.15116 10.0325
0.224 -0.00863451 0.0365817 0.00378874 -0.424814 -0.112801 9.95381
0.225 0.000908709 -0.0033428 0.0115724 -0.181584 -0.276304 10.031
0.226 0.00010804 0.0001484 0.0035482 -0.213646 -0.226739 10.0494
0.227 -0.00161436 0.0304309 -0.000695234 -0.220111 -0.327001 9.86909
0.228 0.0093437 -0.00754448 0.0117345 -0.209739 -0.313052 9.76373
0.229 -0.0112167 -0.00430544 0.0055138 -0.200464 -0.120523 9.91419
0.23 0.00669471 0.00699484 0.00150268 -0.184159 -0.434088 9.82505
0.231 0.00209854 0.00532314 -0.0112952 -0.0300964 -0.229749 10.0295
0.232 0.00648449 0.00320146 -0.0195848 -0.252238 -0.235864 9.96777
0.233 -0.00315509 -0.0033117 0.00953982 -0.355168 -0.134869 9.80335
0.234 0.00514413 0.0159903 -0.0130793 -0.374786 -0.19635 9.9134
0.235 0.00620986 0.0220606 0.012648 -0.132663 -0.117348 9.90721
0.236 -0.000734058 0.0133512 -0.0147453 0.159413 -0.139714 9.55887
0.241 0.00727979 -0.0158245 0.00564333 -0.353885 -0.0393886 9.59071
0.243 -0.011518 -0.00455561 -0.00447148 -0.312425 -0.152264 9.99368
0.244 -0.0277234 0.0162556 -0.00781923 -0.134791 -0.0639219 9.97253
0.245 -0.0041595 -0.00274109 -0.0109411 -0.128529 -0.27501 9.92139
0.246 -0.00583661 -0.00456554 0.00527314 -0.293328 -0.063349 9.90917
0.247 -0.000290222 0.0112969 -0.00149768 -0.221587 -0.285451 9.88592
0.248 -0.00467819 0.0218623 -0.0101754 -0.265291 -0.21862 9.99928
0.249 0.0195256 0.0104055 0.00833216 -0.323401 -0.194186 9.99157
0.252 0.00676415 0.0219307 -0.0138793 -0.13244 -0.209311 9.89159
0.253 -0.00611313 0.0093566 0.00265285 0.0666092 -0.189314 9.58965
0.254 -0.0218433 -0.0035226 -0.0189274 -0.317525 -0.0247949 10.0424
0.255 -0.00403844 -0.00608601 -0.0235146 -0.497997 -0.0903074 10.0309
0.256 -0.00554411 0.014723 -0.021055 -0.196328 0.140793 9.7345
0.257 -0.0077261 0.010368 -0.0110836 -0.220054 -0.22056 9.7241
0.258 -0.00609636 0.00995003 0.0129755 -0.508384 -0.271993 9.87254
0.259 -0.00825488 0.0190178 0.00150521 -0.204417 -0.277908 9.78765
0.26 0.0112719 0.00288428 0.0123957 -0.257831 -0.116538 9.87102
0.261 0.0198279 0.0032924 0.00722042 -0.208936 -0.0654417 9.85526
0.262 -0.00710787 0.0166184 0.0162597 -0.271388 -0.177599 9.68735
0.263 -0.013878 0.0144204 0.0273095 -0.389162 -0.0555542 9.74958
0.264 0.0131168 0.000441236 0.000215815 -0.295162 -0.355138 9.80748
0.265 -0.020575 0.0138222 -0.0204386 -0.502983 -0.303295 9.83483
0.266 0.00535232 -0.000385272 -0.0157732 -0.381414 -0.152149 9.83985
0.267 -0.00478176 -0.00314784 -0.0198502 -0.215268 -0.282253 9.64199
0.268 -0.0138212 -0.00609079 0.000370905 -0.208778 -0.0867746 10.0766
0.269 0.0131606 -0.0116769 0.000873276 -0.354903 -0.202406 9.77436
0.27 -0.0183419 0.00921991 -0.00780361 -0.333801 -0.334086 9.90095
0.271 0.00202279 0.00967414 0.00681652 -0.260078 -0.170223 10.0302
0.272 0.0171187 -0.000177458 -0.0216997 -0.0582949 -0.0631239 9.77986
0.273 0.0212503 0.0118075 0.0111621 -0.225166 -0.159415 9.95157
0.274 -0.0186972 0.00169954 0.000781055 -0.2978 -0.19946 9.87156
0.275 -0.00154643 0.0140168 0.00313327 -0.203931 -0.18567 10.1104
0.276 0.0079094 0.0158799 0.00732041 -0.403031 -0.275627 10.0138
0.277 -0.00482436 0.00583066 -0.00615185 -0.40657 0.0527166 9.80856
0.278 -0.00167478 0.00335546 0.00666925 -0.204681 -0.284293 9.82516
0.279 -0.00447984 0.0197969 0.000854729 -0.283689 -0.2237 9.97068
0.28 -0.00887523 -0.0247769 -0.0147194 -0.0860149 -0.065491 9.84611
0.281 -0.00778322 0.00435255 -0.0111876 -0.15332 -0.147448 9.80177
0.282 0.0042037 0.0143424 -0.00177534 -0.215299 -0.163908 9.916
0.283 -0.00144079 0.0116398 -0.0171488 -0.243319 -0.308917 9.83088
0.284 0.00977877 0.00127609 -0.00373323 -0.20889 -0.173795 10.0367
0.285 0.000693795 -0.0011324 -0.00147695 -0.219559 -0.0303 10.0605
0.286 -0.00169147 -0.0195015 0.00816782 -0.15763 -0.331604 9.85018
0.287 -0.00275214 -0.000292896 0.0033459 -0.12047 -0.0696732 9.93343
0.288 -0.0212057 -0.00510583 0.00811531 -0.0501645 0.0164861 9.69144
0.289 -0.00318132 0.00300336 0.00220908 -0.248056 -0.241179 9.85733
0.29 0.0324348 -0.0156689 -0.0137068 -0.200697 -0.120349 9.95033
0.291 0.00695717 0.00573564 0.0171343 -0.163098 -0.0703128 9.87191
0.292 0.0196864 -0.000420658 -0.0168137 -0.144332 -0.091868 9.91054
0.293 -0.00241677 -0.0027101 0.00140428 -0.336216 0.035091 9.72409
0.294 -0.016371 -0.0117974 0.0218563 -0.043658 -0.277502 9.83821
0.295 -0.00736552 0.00102055 0.0131934 -0.160341 -0.293084 9.76688
0.296 0.0107811 0.00486045 0.00150767 -0.0965503 -0.23034 9.85752
0.297 -0.000913018 0.0056863 -0.0106329 -0.191021 -0.350627 9.81105
0.298 -0.00749955 0.00524657 0.00598321 -0.200356 -0.180966 9.82799
0.299 0.0299899 0.03199 0.00965157 -0.36421 -0.118287 9.93097
0.3 0.0116984 -0.00870512 0.0185268 -0.204907 0.0212263 10.0117
0.301 -0.00625182 0.0189101 -0.011216 -0.153627 -0.242315 10.0661
0.302 -0.0024846 0.0195681 -0.0091442 -0.0823806 -0.400373 9.92406
0.303 -0.0128257 0.013355 -0.0149087 -0.18955 -0.272606 9.89069
0.304 0.00883297 0.02107 -0.00281178 -0.293365 -0.314081 9.80592
0.305 -0.017208 0.00814318 -0.0191174 -0.227338 -0.181243 9.66346
0.306 -0.00899082 0.0024832 0.00937668 -0.218624 -0.227701 9.90943
0.307 0.00812522 0.0114482 -0.0269719 -0.160458 -0.283809 9.80249
0.308 -0.0103946 0.0206139 0.00800724 -0.377728 0.0382919 9.90069
0.309 0.00462741 -0.00744822 0.0122155 -0.220989 -0.330859 9.7758
0.31 -0.0198132 0.00418298 -0.0169024 -0.140266 -0.377656 9.72779
0.311 -0.0187237 0.0182459 -0.000921106 -0.184039 -0.268424 9.72375
0.312 0.0024781 -0.0149935 0.0103283 -0.256293 -0.185641 9.87456
0.313 -0.00428363 0.00376098 0.00691107 -0.161958 -0.547986 9.78086
0.317 0.00219916 -0.0116276 0.00762225 -0.119703 -0.0634479 10.0335
0.318 -0.00214039 0.0135754 0.00666302 -0.543237 -0.036052 9.88888
0.319 0.0035071 -0.00986194 -0.0248542 -0.21661 -0.260817 10.2705
0.32 0.0222052 -0.00644643 -0.0149057 -0.308324 -0.272447 9.9105
0.321 -0.0102746 -0.00570578 0.0258309 -0.106791 -0.30756 9.96373
0.322 -0.000834039 -0.00563555 -0.00457394 -0.149107 -0.203786 9.74727
0.323 -0.00536272 -0.00296722 -0.0154448 -0.0766518 -0.31529 9.93081
0.324 -0.0208535 -0.000788152 0.00651807 -0.321876 -0.0422708 9.80627
0.325 0.0268221 0.0100696 0.0246036 -0.404601 -0.00855719 9.94015
0.326 0.00434335 0.0422153 -0.00268845 -0.375063 -0.265568 9.76896
0.327 -0.00545157 0.0264009 0.0138613 0.102516 -0.114597 9.90165
0.328 -0.0141498 -0.00912579 -0.0125167 -0.378128 -0.166918 9.91188
0.329 -0.00608466 -0.012893 -0.0145064 -0.447895 -0.0990425 9.80299
0.33 0.00240643 -0.0062802 0.00654066 -0.172779 -0.133586 10.0813
0.331 0.0304449 -0.00259488 0.0178304 -0.224422 -0.376579 9.9655
0.332 0.0143132 0.00523749 0.00165098 -0.199015 -0.0600294 9.67778
0.333 -0.0108805 0.0126066 -0.00263967 0.0475792 -0.263754 9.91964
0.334 0.016161 -0.00840947 0.00110015 -0.240807 -0.343727 9.75233
0.335 0.00479575 -0.0130512 0.0257119 -0.250131 -0.146117 9.82296
0.336 0.00358864 0.00938201 0.0310207 -0.519797 -0.221204 10.0246
0.337 0.00985732 0.00364017 -0.00236676 -0.292669 -0.20847 9.95349
0.338 0.00442461 0.00671493 -0.00286229 -0.433244 -0.212815 9.99941
0.339 0.00393856 0.0115728 -0.00535525 -0.256986 -0.390189 9.84516
0.34 -0.00995676 0.0341925 -0.0179866 0.0383083 -0.115314 9.79565
0.341 0.0188836 0.0245336 -0.0163679 -0.411678 -0.0393791 9.75709
0.342 0.00469602 0.00198417 -0.00306022 -0.154438 0.0329252 9.78455
0.343 -0.0045563 0.0116595 2.52105e-05 -0.0712496 -0.20949 9.81971
0.344 -0.0119559 0.00591978 -0.00124818 -0.436008 -0.279862 10.1187
0.345 -0.0220509 -0.00164629 -0.00886241 -0.33099 -0.279139 9.84226
0.346 -0.0216823 0.0136797 0.00380213 -0.176064 0.0494432 9.83588
0.347 -0.0100903 0.0186535 0.00644679 -0.33501 -0.0402673 10.1408
0.348 -0.0122709 -0.00585272 -0.00921768 -0.171768 -0.226592 9.90201
0.349 -0.0102388 0.0149268 -0.00958784 -0.165992 -0.231552 9.87143
0.35 0.0236364 -0.000610037 0.0049975 -0.214369 -0.365335 9.90914
0.351 0.00296933 0.0129927 0.00842621 -0.20505 -0.425043 9.75056
0.352 -4.634e-05 0.0112494 0.0106702 -0.327064 -0.0759233 9.78959
0.353 -0.0066106 0.00726567 -0.00726827 -0.409179 -0.13371 9.74659
0.354 0.00434718 0.00608593 0.00556954 -0.274547 -0.433843 10.0416
0.355 -0.00499856 0.00646085 0.00313532 -0.220993 -0.254007 9.81047
0.356 0.00624219 -0.00274671 -0.00946059 -0.361409 -0.289205 10.0047
0.357 0.00620489 0.0166648 -0.00837343 -0.0820625 -0.255125 9.89798
0.358 0.00060317 0.01428 0.0152447 -0.0197843 0.115724 9.92788
0.359 0.00862729 -0.0159213 0.00842721 -0.189657 0.0146002 9.797
0.36 0.00304091 0.00638569 0.00387644 -0.142771 -0.178027 9.8619
0.361 -0.00248879 -0.00217895 0.00702066 -0.198427 -0.144281 9.71279
0.362 0.00349281 0.0282909 -0.0136103 -0.16229 -0.185756 9.85128
0.363 -0.0139027 0.00562007 -0.00318257 -0.24827 -0.204059 9.91115
0.364 -0.00360661 0.0100404 0.00495687 -0.163836 -0.325018 9.75965
0.365 0.00129716 0.0155808 -0.0123906 -0.209097 -0.21938 9.83415
0.366 -0.004004 0.0124586 0.00525368 -0.111876 -0.166205 9.88463
0.367 -0.00513042 0.0176724 0.00855433 -0.465345 -0.167076 9.81571
0.368 -0.000222947 0.00227351 0.00361081 -0.272583 -0.407124 9.81638
0.369 -0.00124794 0.0013214 0.00499475 -0.142793 -0.292094 9.99565
0.37 -0.00656941 -0.0157881 0.0128236 -0.231022 -0.154788 9.85935
0.371 -0.0115694 -0.00224933 0.00847714 -0.262774 -0.183978 9.98533
0.372 0.0140601 0.0199747 -0.00382774 -0.211232 -0.310379 9.94054
0.374 -0.00587032 0.015356 0.0109531 -0.0711959 -0.338702 9.97341
0.375 0.000306072 0.0080631 -0.00430257 -0.0755706 -0.193401 9.85643
0.376 0.00156896 0.00498761 0.00238756 -0.249346 -0.309283 9.80474
0.377 -0.0104881 -0.00597497 -0.00430775 -0.19542 -0.226131 10.0513
0.378 -0.0274511 0.00479467 0.00308941 -0.488506 -0.228114 9.97819
0.379 0.000453313 0.0244654 -0.00560579 -0.159022 -0.346259 9.87612
0.38 -0.0198431 -0.00659729 0.00974794 -0.357856 -0.327417 9.81317
0.381 -0.0225236 0.0122362 -0.00440471 0.0922863 -0.322847 9.96717
0.382 0.0040425 -0.0246313 -0.0102263 -0.354731 -0.189615 9.94856
0.383 -0.00754207 0.00376419 -0.0120341 -0.133059 -0.187769 9.76394
0.384 0.00289524 0.00987904 -0.0069339 -0.0610183 0.0743709 10.0216
0.385 -0.00561744 -0.00133879 -0.00649533 -0.438097 -0.190165 9.85709
0.386 0.00924018 0.00932651 -0.0149155 -0.277654 -0.363064 9.82261
0.387 0.00428729 0.0139988 -0.0058613 -0.211408 0.0466953 9.81187
0.388 0.0172448 0.0133636 0.0101054 -0.295144 -0.18234 9.80324
0.389 -0.0112145 0.0174546 0.000255743 -0.184986 -0.0332948 9.98781
0.39 -0.0168931 0.0325153 0.00232633 -0.0805527 -0.282726 9.81161
0.391 -0.00136913 0.00498976 0.00597467 -0.287817 -0.122362 9.83068
0.392 -0.0209524 0.0133804 0.0194726 -0.0497062 -0.305476 9.92898
0.393 -0.000365107 0.0315193 -0.0196197 -0.318456 -0.0303184 9.70741
0.394 -0.00854723 -0.0141972 -0.0125804 -0.447165 0.0128075 9.89109
0.395 -0.00224463 -0.00823483 0.0037214 -0.199942 -0.131975 9.71862
0.396 -0.0272924 -0.00241718 -0.00399754 -0.19421 -0.0437613 9.69328
0.397 0.004782 -0.0129231 -0.00873303 -0.164867 -0.000660658 9.94854
0.398 0.0048351 0.00334055 0.00514579 -0.18695 -0.170317 9.61509
0.399 -0.00612876 0.0125445 0.00745033 -0.179788 -0.278669 9.80087
0.4 0.0008245 0.00879833 -0.00161637 -0.280248 0.142333 9.64121
0.401 -0.00851701 0.00209956 -0.0222179 -0.278376 -0.196923 9.80502
0.402 -0.00780473 0.00671605 -0.00452349 -0.483652 -0.0789736 9.80787
0.403 0.00302427 0.0149986 -0.0092008 -0.209262 -0.275203 10.0057
0.404 -0.000184689 -0.00786325 0.014178 -0.321843 -0.417941 9.92639
0.405 -0.0033894 0.0100095 -0.00143983 -0.201495 -0.30856 9.78135
0.406 -0.0114824 0.00333075 -0.00126432 -0.266902 -0.132114 9.94256
0.407 0.00426841 -0.00324184 0.0042375 -0.325501 -0.272237 9.89235
0.408 -0.00636944 0.00568768 0.00760666 -0.42705 -0.335229 9.95281
0.409 0.00969205 -0.0031243 -0.00364593 -0.354035 -0.135381 9.91209
0.411 0.00238721 0.00592304 0.0147449 -0.290369 -0.199942 10.022
0.412 -0.00534726 0.0119479 -0.00236422 -0.148978 -0.26132 9.94914
0.413 -0.00653611 0.000636719 -0.000162585 -0.177097 -0.0365697 9.84726
0.414 0.00523634 0.01573 0.000307581 -0.374116 -0.0625009 9.99617
0.415 -0.00570161 0.0119782 0.00955053 -0.308736 -0.329536 9.79911
0.416 0.00108106 -0.013873 -0.0144337 -0.294577 -0.026378 9.94756
0.417 0.00628161 0.00674752 0.0104027 -0.288762 0.0929816 9.76289
0.418 -0.0167361 0.00981283 0.00777051 -0.200248 -0.0617251 9.82371
0.419 -0.00575341 -0.00231748 0.00562634 -0.159537 -0.163477 9.96017
0.42 -0.0073396 0.0210914 -0.00461263 -0.206486 -0.063641 9.79621
0.421 0.00788732 0.00594461 0.0146679 -0.364669 -0.274497 9.7881
0.422 0.01749 0.0223178 0.0125739 -0.111661 -0.185089 9.73762
0.423 0.0138152 -0.00915637 -0.0127788 0.0967562 -0.133972 9.91079
0.424 -0.0151725 0.0127369 -0.00188933 -0.0686972 -0.08983 9.89521
0.425 0.00140759 -0.00198168 -0.0010423 -0.25661 -0.358275 10.1409
0.426 -0.0142082 0.00333821 0.0222388 -0.266384 -0.105071 9.77097
0.427 -0.00745873 -0.00297886 -0.013654 -0.0796466 -0.389596 9.87931
0.428 -0.00998223 0.011525 -0.00153438 -0.377735 -0.209426 10.0044
0.429 -0.0118564 0.0152224 -0.0073475 0.047716 -0.0633225 9.86235
0.43 -0.00350623 0.0126186 -0.00242073 -0.158788 -0.238786 10.0369
0.431 -0.00693474 0.00639256 0.000521247 -0.350928 -0.139554 9.75773
0.432 -0.00091597 0.0177253 -0.00570053 -0.282678 -0.142682 10.0539
0.433 0.0166531 0.00188855 -0.00242574 -0.258719 -0.3773 9.93585
0.434 0.00728871 -3.41463e-05 -0.00523071 -0.130731 -0.194004 9.87718
0.435 -0.00472277 0.0315433 0.00136028 -0.216115 -0.322592 9.85231
0.436 0.000431648 -0.00143954 0.0139029 -0.17151 -0.218899 10.0425
0.437 0.0112657 0.0202607 0.00131355 -0.403725 -0.235701 9.88961
0.438 0.0218404 -0.00285325 -0.015106 -0.2438 -0.0285217 9.85176
0.439 0.00748334 0.00980399 0.00961733 -0.260698 -0.108133 10.1709
0.44 -0.000765132 -0.0103826 0.00896054 -0.216079 -0.288339 9.87322
0.444 -0.00897446 -0.00650236 0.00305221 -0.183843 -0.481037 9.87409
0.445 -0.0110449 0.00687892 0.0251425 -0.319529 -0.23338 9.67548
0.446 -0.00760468 0.010748 0.0151737 -0.396345 -0.228019 10.0006
0.447 0.00235733 -0.0128504 -0.000305888 -0.374887 -0.263856 9.78121
0.448 0.0118225 0.000843902 0.0202062 -0.0127345 -0.163001 9.83882
0.449 -0.00621102 0.0128005 -0.0198779 0.00287192 0.0306324 9.70535
0.45 -0.00815067 -0.00936657 0.00780762 -0.415322 -0.126816 9.80649
0.451 0.00225813 0.0040286 0.00906966 -0.242602 -0.187893 9.71478
0.452 0.00618359 0.0207805 0.00448161 -0.311337 -0.37138 9.78793
0.453 -0.00498478 0.0136462 0.0138633 -0.236445 -0.0921553 9.73733
0.454 -0.00257195 0.0139819 -0.0189542 -0.449569 -0.270365 9.7892
0.455 0.0116804 0.0158644 -0.00257489 -0.178272 -0.188019 9.62774
0.456 0.00755639 0.00135276 -0.00205087 -0.0569543 -0.221608 9.79454
0.457 -0.0103139 0.00804235 0.00409574 -0.0643724 0.0311576 10.1247
0.458 0.0062226 0.000836884 0.00297285 -0.232738 -0.206091 9.79683
0.459 -0.0356366 0.00618839 -0.00459913 -0.183124 -0.369547 9.91835
0.46 -0.00177543 0.0255132 -0.0133354 -0.30572 -0.192291 9.78282
0.461 0.0194157 0.0113733 0.000717788 -0.208272 -0.0428087 10.0649
0.462 0.00995406 0.00166966 -0.00265364 -0.295551 -0.049748 9.9861
0.463 0.00512074 0.0243094 0.00250651 -0.408359 -0.158404 9.94214
0.464 -0.00399896 0.0127152 -8.32953e-05 -0.192179 -0.174546 9.86366
0.465 0.00252474 0.0111318 0.00488036 -0.237898 -0.319193 10.177
0.466 0.00739549 0.0129706 0.00811325 -0.119644 -0.282817 9.87609
0.467 0.0073685 -0.00339846 0.021959 -0.251235 -0.147194 9.89173
0.468 -0.0122853 0.00439593 -0.00167392 -0.355014 -0.325897 9.80344
0.469 0.000889319 0.0161007 -0.0150614 -0.0819244 0.0577835 9.66606
0.47 0.000596233 0.00810253 0.019448 0.0123426 -0.416059 10.0122
0.471 -0.0171563 -0.0125444 -0.000231452 -0.185049 -0.0752719 9.87768
0.472 0.00628722 -0.0016773 0.00289117 -0.170898 -0.118787 9.70832
0.473 -0.0103298 -0.00329338 -0.0090303 -0.265419 -0.316565 9.74711
0.474 0.00327683 -0.0140724 0.00719382 -0.426347 -0.345481 9.86209
0.475 -0.00529357 0.0112943 -0.0122306 -0.380719 -0.270586 9.94703
0.476 0.00657205 0.0132466 -0.0121342 -0.229209 -0.100588 9.91197
0.477 -0.0128476 -0.00277382 0.00126516 0.0220639 -0.12187 9.83983
0.478 -0.00849397 -0.00158409 -0.0232142 -0.331563 -0.239532 9.91724
0.479 0.0182352 0.0196963 -0.0216963 -0.196816 -0.184019 9.8521
0.48 -0.0130185 0.0134995 -0.011228 -0.187103 -0.281081 9.76081
0.481 0.0262314 0.00864137 -0.0107844 -0.439639 -0.373703 9.74465
0.482 -0.00394346 0.0236492 0.00786666 -0.313849 -0.310322 10.0151
0.483 -0.0165735 0.00593925 0.00298362 -0.119283 -0.187063 9.80792
0.484 0.00103853 -0.011086 0.000555429 -0.135487 -0.0315536 9.8845
0.485 -0.0172463 0.00844086 -0.0173811 -0.595639 -0.0428224 9.9236
0.486 -0.00549021 0.0122664 -0.00200694 -0.284573 -0.246719 9.7706
0.487 -0.0310479 -0.0031754 0.0131194 -0.266554 -0.105744 10.0557
0.488 -0.00196127 0.00861859 -0.00645225 -0.253791 -0.130273 9.81559
0.489 -0.0159711 -0.00119369 0.0131066 -0.0428115 -0.249666 9.71395
0.49 -0.00238931 0.00829564 -0.016435 -0.200433 -0.172798 9.84627
0.491 -0.00750087 0.00209377 -0.00575918 -0.306014 -0.221439 9.7968
0.492 0.00290556 0.0236757 -0.00781487 -0.202602 -0.0271041 9.91994
0.493 -0.00761448 0.00807108 0.00333046 -0.0660791 -0.232649 9.99107
0.494 -0.00579273 0.00329525 -0.00919324 -0.19126 -0.113816 9.69033
0.495 0.000190997 0.0253387 -0.0133254 -0.248883 -0.165628 9.66094
0.496 -0.0145819 0.0120578 -0.00362987 -0.36504 -0.186127 9.87898
0.497 0.0154604 -0.000196193 -0.00589654 -0.3031 -0.0886699 9.84418
0.498 -0.0126324 0.0238502 -0.00769029 -0.388142 -0.222625 9.82865
0.499 -0.0199044 0.0177925 -0.00467064 -0.219054 -0.252186 9.99789
0.5 0.00951151 0.0223416 -0.00671174 -0.166929 -0.233503 9.73489
0.501 -0.0144549 -0.0113744 -0.00461248 -0.3114 0.0520271 9.81406
0.502 -0.0170007 0.00496817 0.00685416 -0.279707 -0.0984264 9.925
0.503 -0.00785238 6.81308e-05 -0.0172435 -0.128358 -0.291961 9.81711
0.504 -0.00606175 0.00746541 -0.0111101 -0.219396 -0.35984 9.97368
0.505 0.0263763 0.00189752 0.00752738 -0.0378167 -0.109543 9.80942
0.506 0.00701541 0.00260402 -0.00809867 -0.197614 -0.0811348 9.95104
0.507 0.00912494 -0.00389903 0.00260867 -0.316454 -0.148296 9.88722
0.508 0.0183468 -0.015937 -0.00862264 -0.273088 0.00534022 9.89436
0.509 -0.00167781 0.0160248 0.0214107 -0.252595 -0.202147 9.92503
0.51 0.0149206 0.0153533 -0.0130777 -0.294214 0.187689 9.83654
0.511 -0.00159507 -0.000718316 0.00328417 -0.302339 -0.194461 9.92332
0.514 0.00376201 -0.00287199 -0.0136801 -0.346064 -0.185137 9.64735
0.515 -0.00575334 -0.0113696 -0.00762074 0.0700419 -0.150518 10.0145
0.516 0.00626067 -0.0161201 -0.00880757 -0.16983 -0.235221 9.9984
0.517 -0.0160058 -0.0101473 -0.00877708 -0.189692 -0.228414 9.78616
0.518 0.00814696 -0.00653503 0.00201693 -0.151382 -0.267861 9.8
0.519 0.00557018 0.00748482 -0.00191905 -0.135873 -0.084358 9.94862
0.52 0.0057738 0.000989703 0.011276 -0.246218 -0.248097 10.0826
0.521 0.0295328 -0.025856 0.00148979 -0.446932 -0.202702 10.0708
0.522 0.00356345 0.0249459 0.00428097 -0.103046 -0.191005 9.79224
0.523 -0.0137634 -0.00513093 0.015798 -0.300474 -0.45335 9.79045
0.524 -0.0142217 0.0223314 0.00717065 -0.174008 -0.0474238 9.9313
0.525 -0.0117865 0.00245159 0.00918697 -0.326615 -0.192146 9.76434
0.526 0.00173131 -0.00218095 -0.00858999 -0.0717743 -0.193834 9.78931
0.527 -0.00890769 -0.0229917 -0.00709166 -0.273014 -0.636915 10.0413
0.528 -0.0166408 0.00346628 0.00265538 -0.0885074 -0.385953 9.76984
0.529 -0.00499066 -0.0108775 -0.00393532 -0.285866 -0.196375 9.90151
0.53 -0.00584891 -0.0125988 0.0190245 -0.163121 -0.232466 9.98752
0.531 -0.00470796 0.00973417 0.00410738 -0.171986 -0.116697 9.66399
0.532 -0.0100704 0.0104012 -0.00469289 -0.00407388 -0.094287 9.92211
0.533 -0.00786596 0.0145033 -0.00483092 -0.32893 -0.153733 9.93323
0.534 0.00268705 0.0263902 0.00961701 -0.268828 -0.256793 10.018
0.535 0.0193356 0.0199031 -0.00233869 -0.179842 -0.256825 9.72915
0.536 0.00732965 -0.00607376 0.00267034 -0.161584 -0.384285 9.91247
0.537 -0.021471 -0.00149898 -0.00340795 -0.203009 -0.215641 9.85909
0.538 0.000405101 0.0281047 0.00087605 -0.146052 -0.297087 9.82729
0.539 -0.00130774 -0.00366689 0.00106338 -0.301782 -0.167255 9.84576
0.54 -0.004117 -0.021051 0.00191213 -0.340906 -0.0741197 9.85667
0.541 0.000601718 0.00529272 0.0022193 -0.356034 -0.373593 10.1133
0.542 -0.00299643 0.00160666 -0.00835602 -0.260873 -0.0803002 9.68504
0.543 0.00632474 0.00217904 -0.00653887 -0.161887 -0.168288 9.82654
0.544 -0.0287722 0.02794 0.00874977 -0.40902 -0.0977677 9.71205
0.545 0.00910272 -0.00346685 0.0053594 -0.333815 -0.134548 10.0072
0.547 0.00937187 0.0201339 -0.0138663 -0.181764 -0.256632 10.0494
0.548 -0.00298162 0.00724144 0.00894376 -0.184171 -0.21534 9.94419
0.549 0.00643175 0.018656 -0.00621877 -0.132758 -0.0329481 9.90732
0.55 -0.00567559 0.00240099 -0.00526718 -0.294644 -0.230162 9.77199
0.551 -0.000813366 0.0312079 0.00705352 -0.497881 -0.130891 9.96014
0.552 0.000903465 -0.00394204 -0.0196051 -0.119292 -0.181791 9.91111
0.553 -0.0103479 -0.00940576 0.00620885 -0.131689 -0.197127 10.0211
0.554 -0.0161064 -0.00132108 -0.00283186 -0.136955 -0.124669 9.95245
0.555 -0.0213 0.0136346 -0.00474867 -0.342837 -0.130998 10.0202
0.556 0.000106991 0.0301797 0.0113675 -0.261846 -0.136077 9.93719
0.557 0.00970817 0.00485509 -0.00460707 -0.15493 -0.220598 9.85456
0.558 0.00480199 -0.00749173 0.00178541 -0.216396 -0.247013 9.65907
0.559 0.00271958 -0.0044672 0.0023731 -0.452009 -0.0772743 9.86124
0.56 0.00347572 0.0210498 0.00638737 -0.424424 -0.0421207 9.9421
0.561 -0.0127983 0.013151 0.000395086 -0.13487 -0.151626 9.96913
0.562 -0.0144284 0.0177408 0.0213143 -0.443629 -0.158272 9.79952
0.563 0.0125268 0.00395417 0.00443154 -0.0673019 -0.0375859 9.85503
0.564 0.00293475 -0.0131738 -0.00535601 -0.240709 0.162728 9.85373
0.565 -0.0075974 0.0101131 -0.00813001 -0.136915 -0.485356 9.80167
0.566 0.0058146 0.00927498 -0.00100874 0.0974922 -0.280574 9.72742
0.568 0.0115949 0.0158032 0.000677251 -0.132021 -0.0601749 9.91213
0.569 0.0015664 -0.00444836 -0.00502154 -0.26407 -0.221299 10.013
0.57 -0.00372002 -0.00308512 -0.0346583 -0.216982 -0.235334 9.84068
0.571 0.00801539 0.0151473 -0.00277846 -0.540845 -0.0299737 10.0351
0.572 0.00551669 0.0116594 0.000804256 -0.25381 -0.228876 9.72876
0.573 -0.0108415 0.0208471 0.00374082 -0.0350645 -0.156429 10.048
0.574 0.0062104 0.0111341 0.0100301 -0.336815 -0.323623 9.81179
0.575 0.00617265 0.0242552 -0.00978856 -0.400017 -0.145569 9.88435
0.576 -0.00512757 -0.0132279 0.00333101 -0.0992384 -0.108948 10.1088
0.577 0.0238027 0.00832344 -0.0223386 -0.395818 -0.154743 9.85885
0.578 0.0117001 -0.00459327 -0.0122773 -0.374751 -0.190882 9.90262
0.579 -0.0173743 -0.00532769 0.00115849 -0.247369 0.0110934 9.89651
0.58 -0.0081031 0.00615711 0.000130766 -0.27692 -0.346914 9.8163
0.581 0.00923964 0.00816794 -0.00769967 -0.348265 -0.226593 9.96945
0.582 -0.0286443 0.00994549 0.00885896 -0.352842 -0.197668 9.8344
0.583 0.0109911 0.0188293 0.0186308 -0.0607919 -0.263461 9.70715
0.584 0.00236376 0.0129069 -0.0214156 -0.260708 -0.107216 9.92733
0.585 -0.00582272 -0.0167833 0.000772402 -0.129705 0.0101714 9.83725
0.586 -0.000188568 0.0250979 -0.00543577 -0.297127 -0.104046 9.82319
0.588 -0.00382042 0.0101526 -0.00792537 -0.364795 0.0425505 9.73098
0.589 -0.00920711 -0.00369348 0.0159737 -0.115481 -0.147487 9.81373
0.59 -0.000214738 0.00801236 -0.00574857 -0.275555 -0.280597 9.85075
0.591 0.00526128 0.0193185 -0.0191649 -0.225653 -0.301147 9.73259
0.592 0.00321413 0.000681566 0.00393492 -0.118602 -0.111634 9.91253
0.593 -0.00301396 0.00615342 0.00518736 0.039209 -0.220702 9.79927
0.594 0.0079444 0.0106685 0.00272635 -0.0653793 -0.163557 9.9913
0.595 -0.0159328 -0.00159966 -0.0149276 -0.154695 -0.262291 9.68571
0.596 0.00316986 0.00578599 -0.00608061 -0.217401 -0.225537 9.9723
0.597 0.00492459 -0.010566 -0.0042935 -0.0830866 -0.242726 10.0572
0.598 -0.00305243 0.00471485 -0.0135953 -0.342127 -0.148818 9.90475
0.599 -0.00434939 0.00502726 0.00377459 -0.164804 0.0100388 9.99794
0.6 0.00218588 0.00867241 -0.0203704 -0.304095 -0.189125 9.83714
0.601 0.0165202 -0.00730352 0.00640978 -0.196026 -0.26644 9.9467
0.602 -0.00553624 -0.000508219 -0.00633812 -0.235006 -0.34813 10.0135
0.603 0.0138849 0.00682423 0.00680762 -0.095174 -0.1186 9.67264
0.604 -0.0054203 0.014022 -0.00120049 -0.341735 0.0233182 9.84309
0.605 -0.00548209 0.0137916 0.00570237 -0.0650833 -0.318904 9.99322
0.606 -0.0024627 -0.00188341 0.0224519 -0.0723929 0.122767 9.72274
0.607 -0.0114495 -0.00387924 0.00689201 -0.445987 -0.127187 9.79585
0.608 -0.013911 -0.00660988 -0.00649155 -0.170649 -0.215279 9.86201
0.609 0.00776284 0.0161121 0.00560496 -0.120513 -0.11941 9.94537
0.61 -0.0060793 -0.010179 0.0126364 -0.11831 -0.435661 9.87666
0.611 -0.00849238 0.0084261 -0.00565714 -0.403721 0.0311237 10.0459
0.612 -0.000988296 0.0145626 -0.0166778 -0.220603 -0.172052 9.58773
0.613 0.00604447 -0.00842265 -0.00146409 -0.0308015 -0.151483 9.99747
0.614 0.0208623 -0.0140115 0.00216264 0.00673176 -0.00190208 9.79791
0.615 -0.00135059 0.00793023 0.0202709 -0.15171 -0.223965 9.94818
0.616 0.00528228 0.003386 -0.00271454 -0.27891 -0.186344 9.87914
0.617 -0.000296716 0.0165816 0.0138474 -0.182372 -0.0834042 9.69527
0.618 -0.0171082 -0.00330944 -0.00739115 -0.226556 -0.0771418 9.65216
0.619 -0.0106715 0.0105033 0.00737103 0.051676 -0.449108 9.907
0.62 0.0160469 -0.00286219 0.0103023 -0.186684 -0.132492 9.76877
0.621 -0.00478431 0.00747005 -0.0154304 -0.453513 -0.11398 9.59443
0.622 -0.00823566 0.00800113 -0.00252098 -0.301044 -0.250815 10.084
0.623 0.0106773 0.00683958 0.0179703 -0.336419 -0.378146 9.78396
0.624 0.0100535 0.00416394 -0.0116107 -0.257426 -0.241874 9.96196
0.625 -0.00046393 -0.00469012 -0.00645409 -0.198566 -0.145436 10.0449
0.626 -0.0199518 0.00196395 -0.00521112 -0.275558 -0.142808 10.0359
0.627 0.01136 0.0152075 -0.00661459 -0.244747 -0.0991925 10.0123
0.628 -0.00984562 0.011937 0.00655037 -0.27407 -0.238088 9.70041
0.629 0.00864785 0.00972622 0.00596007 -0.211752 -0.354658 9.78734
0.63 0.00934134 0.00945452 0.017497 0.000100955 -0.164666 9.84081
0.631 -0.00551256 0.0204343 0.00422157 -0.2809 -0.210813 9.79433
0.632 0.0119241 0.00181736 -0.0108536 -0.24631 -0.107261 9.81395
0.633 -0.00362145 -0.00731093 -0.00985799 -0.306881 -0.370342 10.0104
0.634 -0.00670723 0.00708835 -0.0039479 -0.394812 -0.163052 9.55035
0.635 -0.00355772 0.0139115 0.00581567 -0.230939 -0.0168843 9.75035
0.636 0.00125627 0.00633826 -4.46539e-05 -0.140419 -0.359995 9.89077
0.637 -0.0123345 0.0234755 -0.00468724 -0.218625 -0.0777372 9.91181
0.638 -0.0111849 0.00499399 -0.00602672 0.0681354 -0.144881 9.86054
0.639 -0.0149489 -0.0135012 0.00387214 -0.267654 -0.158937 9.82285
0.64 0.00827704 -0.000723014 -0.0117646 -0.234467 -0.136834 9.81878
0.641 -0.00173453 0.0034519 0.00887117 -0.414664 -0.162987 9.90209
0.642 0.014973 0.00286009 -0.0031462 -0.441147 -0.137593 9.81567
0.643 0.0139272 -0.00770578 -0.00751931 -0.110014 -0.205664 10.0142
0.644 -0.00341194 -0.00116103 0.00503045 -0.215084 -0.0928627 9.72823
0.645 0.00252573 0.0106255 -0.0167897 -0.23582 -0.38677 9.85135
0.646 0.00368091 0.0173782 0.00419952 -0.388463 -0.232343 9.98871
0.647 -0.00678117 0.00918408 0.00464182 -0.237545 -0.0726222 9.77783
0.648 0.0120102 0.0145543 -0.0104946 -0.118329 0.113152 9.65848
0.649 -0.00517501 0.00463619 0.00762201 -0.320195 0.0184124 9.79329
0.65 -0.00571289 0.00625421 0.000642349 -0.232463 -0.0640209 9.88867
0.651 0.0148888 0.00520104 0.0138628 -0.211028 -0.285783 9.98134
0.652 -0.00164713 0.0162468 0.0109657 -0.373857 -0.281816 9.71954
0.653 0.00941571 0.0251152 -0.00129797 -0.314865 -0.229875 9.77284
0.654 0.00713696 0.0158118 0.0060911 -0.473754 -0.448295 9.87649
0.655 0.016635 -0.00910748 0.00447592 -0.250662 -0.221995 9.76659
0.656 0.00359673 -0.0113809 -0.00845502 -0.0178806 -0.454854 9.85007
0.657 -0.0095038 0.00184262 -0.0036268 -0.247893 -0.223358 10.0558
0.658 -0.0172001 0.0174251 0.0130349 -0.308293 -0.15567 9.60873
0.659 0.00718474 0.0133501 -0.00410726 -0.285883 -0.187671 10.1025
0.66 -0.0209558 -0.000196694 -0.00227082 -0.234224 0.0485504 9.72129
0.661 -0.014997 0.00582795 -0.000202356 -0.305096 -0.0321496 9.81351
0.662 0.00128836 0.00480853 0.0104469 -0.225661 -0.204852 9.70265
0.663 0.00164423 0.00887172 0.00559084 -0.375147 -0.413791 9.76198
0.664 -0.000213724 -0.00496047 -0.0060517 -0.113334 -0.0485804 9.70625
0.665 0.0151488 -0.000303374 -0.0112088 -0.44594 -0.256081 9.72338
0.666 0.0060235 -0.00125417 0.0119452 -0.206167 -0.0534026 9.89778
0.667 0.0128116 0.00695827 -0.00869107 -0.300759 -0.391074 9.80504
0.668 0.00231078 0.00434881 0.0263311 -0.31145 -0.0421759 9.59287
0.669 -0.0123029 0.00389457 -0.0148771 -0.294669 -0.238537 9.7697
0.67 0.0130515 0.0205634 -0.0203073 0.0080497 -0.161156 9.68566
0.671 -0.00624524 0.00268512 0.0221569 -0.0740398 -0.18725 9.81348
0.672 0.00435577 0.00209072 0.00699648 -0.238237 -0.125291 10.0818
0.673 0.00145523 0.00370723 0.00662484 -0.113622 -0.0452599 9.92739
0.674 -0.00841135 0.00983656 0.00548588 -0.00146955 -0.217937 9.97509
0.675 0.00124081 0.00680037 -0.0166887 -0.0210201 -0.15703 9.91195
0.676 -0.0127802 -0.0174227 0.00917648 -0.0822577 -0.12831 9.92674
0.677 -0.0127935 0.00311636 -0.0099321 -0.253476 -0.225018 9.54289
0.679 0.00826348 -0.00732364 0.00566394 -0.410016 -0.0793589 10.1088
0.68 0.00353395 -0.0106953 0.0083712 -0.0840399 -0.300487 10.0469
0.681 -0.00115856 0.00518756 -0.00368095 -0.386827 -0.293048 9.95367
0.682 0.013596 -0.00341557 0.00165868 -0.293357 -0.36081 9.91373
0.683 0.0113751 0.00125108 0.00961869 -0.22388 -0.123143 9.75252
0.684 -0.00319227 -0.00421607 0.0088084 -0.102763 0.11454 9.96139
0.685 0.0223577 -0.00543322 -0.0268462 -0.205949 -0.440204 9.99761
0.686 0.0205499 -0.00114086 0.00427172 0.033655 -0.363247 9.76088
0.687 0.023124 -0.00231064 0.0089477 -0.052948 -0.0649401 10.1075
0.688 0.00796733 0.00711992 -0.00136812 -0.344877 -0.21648 9.74177
0.689 0.00361256 -0.00994306 -0.0117191 -0.194413 -0.287754 9.96098
0.69 0.00610243 0.000338326 0.0050451 -0.27739 -0.0115347 9.9743
0.691 -0.00510383 0.0167793 0.000186089 -0.161487 -0.454205 9.79478
0.692 -0.0120828 -0.02359 -0.00178101 -0.0878763 -0.239164 9.82453
0.693 -0.0072183 0.00702832 -0.00428773 -0.0731434 0.128685 9.6504
0.694 0.00449049 0.0236357 -0.00615751 -0.382462 0.0334443 10.2002
0.695 -0.00517082 0.0198423 0.0119607 -0.261157 -0.0907361 9.90299
0.696 1.93224e-05 -0.00730934 0.00524922 -0.270116 -0.381482 9.93233
0.697 -0.0154556 -0.00624897 0.00540919 -0.264203 -0.245408 9.95252
0.698 -0.00261942 0.00433931 0.0105869 -0.206022 0.0299976 10.0177
0.699 0.00765498 0.00506906 -0.00385359 -0.161227 0.163331 9.66602
0.7 0.0100312 -0.00813142 -0.0185339 -0.225214 -0.0436961 9.88657
0.701 -0.00371599 0.0236127 0.00584678 -0.0816517 -0.396151 9.6755
0.702 -0.00761996 -0.0102815 0.00994812 -0.377979 -0.229345 9.6522
0.703 -0.00830241 -0.0129632 0.00834773 -0.241406 -0.255806 9.91195
0.704 0.00324397 0.0213154 -0.00279306 -0.185544 -0.160537 9.96281
0.705 0.0194793 -0.012536 -0.00934445 -0.366606 -0.284656 9.97003
0.706 -0.00131756 0.0150086 -0.00198621 -0.240866 -0.387537 9.7762
0.707 0.00260027 0.0166539 -0.00905857 -0.0471978 -0.353366 10.0781
0.708 0.0150599 0.0135929 0.00163972 -0.205593 -0.209472 9.96966
0.709 -0.0168698 0.00409815 -0.00319282 -0.381309 -0.196375 9.80012
0.71 0.011972 0.0251625 -0.0193742 -0.276163 -0.335674 9.9098
0.711 0.00630834 0.00342991 0.00435844 -0.305933 -0.207087 9.85692
0.712 0.00873112 0.00855972 0.0290675 -0.356266 -0.192189 9.75785
0.713 0.0112201 0.020467 0.0144925 -0.294324 -0.105382 10.0744
0.714 -0.00660711 0.00257065 -0.00349123 -0.347527 -0.415391 9.97199
0.715 -0.000299983 0.00360836 0.00485807 -0.354109 -0.178637 9.81357
0.716 -0.00651425 0.0152279 0.00277707 -0.316377 0.0407294 9.80735
0.717 -0.01042 0.00796685 0.00840017 -0.672119 -0.194529 9.81499
0.718 -0.000893991 -0.0105741 0.000820506 -0.38577 -0.0706804 9.82757
0.719 0.000205525 0.0173028 0.0176078 -0.389196 -0.209196 10.0599
0.72 0.00475052 0.00357322 0.00781801 -0.138455 -0.457402 9.83444
0.721 0.00261911 0.00807587 -0.0120564 -0.479151 -0.350044 9.82173
0.722 0.0186702 0.0268697 -0.00272985 -0.338254 -0.175916 9.72502
0.723 0.0111196 -0.00620997 0.003922 -0.326998 -0.255602 9.92518
0.724 -0.00703305 0.0112015 -0.0101711 -0.228618 -0.122869 10.0145
0.725 -0.00197245 0.0121635 -0.00311566 -0.129811 0.00343223 9.91414
0.726 -0.0182182 0.00985452 -0.0106421 -0.200897 -0.254056 9.65376
0.727 -0.0328551 0.0049819 -0.019299 -0.222888 -0.234112 9.8091
0.728 -0.0138494 0.0158484 0.000901877 -0.214508 -0.189822 9.83531
0.729 0.0179317 0.00792939 0.000462419 -0.29981 -0.305343 10.0169
0.73 -0.00630807 0.000752475 0.00122585 -0.0977581 -0.291371 9.80016
0.731 0.0213553 0.0267937 -0.0033885 -0.313958 -0.0607303 9.79555
0.732 0.00195516 -0.00641599 -0.00621111 -0.518319 -0.316018 10.0017
0.733 0.00227997 -0.00353581 0.00603648 -0.302482 -0.212343 10.0812
0.734 0.0155562 -0.0130716 0.0210403 -0.245643 0.102788 9.93508
0.735 0.000141203 -0.0053309 -0.0187261 -0.0126112 -0.101941 9.70423
0.736 -0.0143974 0.0011625 -0.000626931 -0.469221 -0.563487 9.87581
0.737 -0.00261444 0.00934315 0.0115532 -0.257467 -0.185261 9.8253
0.738 0.00256021 0.00703852 0.0180334 -0.0493616 -0.414288 9.80726
0.739 -0.00684177 0.00663579 0.00988183 -0.171032 -0.128242 9.75862
0.74 -0.00424709 0.00198134 -0.00853772 -0.342838 -0.243487 9.94107
0.741 -0.0220622 -0.00427367 0.0168722 -0.22564 -0.236414 9.64846
0.742 0.00775273 0.000899767 -0.00781944 -0.317216 -0.249231 9.82759
0.743 -0.00911204 0.0211539 0.0143429 -0.404212 -0.104095 9.71552
0.744 -0.0112801 -0.00285108 0.000607032 -0.324052 -0.206577 9.64474
0.745 0.00235959 0.0202969 0.0190564 -0.0645147 0.118097 9.84466
0.746 0.00310586 0.00780648 -0.00741548 -0.363029 -0.0434203 9.89847
0.747 -0.0201549 -0.00360825 0.0029368 -0.19182 -0.0194881 9.82589
0.748 0.00807316 -0.00614918 -0.00374629 -0.424947 -0.211731 10.0199
0.749 0.0111633 0.0101605 0.0150983 -0.199322 -0.0776047 9.88433
0.75 0.00787799 -0.000163121 0.00350779 -0.293028 -0.112907 9.96777
0.751 -0.0247404 0.00504635 -0.00707942 -0.404391 -0.110853 9.77321
0.752 -0.00608778 0.00671692 -0.00771376 -0.106494 -0.300899 9.98715
0.753 0.000308928 0.039021 0.0087598 -0.0856212 -0.337162 9.74251
0.754 0.000486379 0.018458 0.00310697 -0.186356 -0.263456 9.93519
0.755 -0.0166896 0.00570286 0.0130393 -0.131427 -0.285729 9.86215
0.756 0.00411366 0.00783081 0.00220921 -0.306258 -0.186163 9.7606
0.757 -0.0076109 -0.012531 0.00757621 -0.240161 -0.302672 9.80159
0.758 0.0147425 0.0233075 -0.0069429 -0.264316 -0.23324 9.92933
0.759 -0.0138269 0.0124619 -0.00585636 -0.229518 -0.136595 9.89646
0.76 -0.0120386 0.00207859 -0.00867957 -0.288611 -0.232501 9.87758
0.761 -0.0158996 0.00628817 -0.00201201 -0.235936 -0.166778 10.0102
0.762 0.00189084 0.00512653 -0.00897441 -0.0368142 -0.374108 9.73301
0.763 0.00423538 -0.0060866 0.00807907 -0.185846 -0.198777 10.0019
0.764 -0.0105325 -0.00246846 0.0137118 -0.387593 -0.193458 9.90973
0.765 -0.0236122 -0.000654889 -0.00164868 -0.0905902 -0.0593774 9.78623
0.766 0.0108139 0.00920994 -0.00589909 0.048767 -0.16052 10.0018
0.767 -0.00621539 0.0116687 -0.0171705 -0.194029 -0.0552876 9.80125
0.768 -0.0114482 0.0048753 -0.00144796 -0.148114 -0.180026 9.71593
0.769 0.0103836 0.0124255 0.017229 -0.429667 -0.0105738 9.92789
0.77 0.00486227 0.0219657 -0.00614317 -0.464714 -0.062354 9.62619
0.771 -0.00695749 0.00464819 -0.0205815 -0.475172 -0.131428 9.91277
0.772 -0.00912117 0.00816518 0.00170038 -0.450205 -0.0531484 10.0856
0.773 0.0130009 -0.00260483 -0.00550471 -0.0400483 0.0572776 9.76521
0.774 -0.00524644 -0.00154537 -0.0106775 -0.338092 -0.256348 9.93603
0.775 0.0132979 0.0321055 -0.00131683 -0.149615 -0.274306 9.76656
0.776 -0.00730874 -0.00491419 -0.00890903 0.087495 -0.0865013 9.73169
0.777 0.00336814 0.0105765 -0.00278185 -0.343033 0.036097 9.85932
0.778 -0.0169706 0.0063352 0.012193 -0.327372 -0.259987 10.004
0.779 0.00835349 0.0199754 -0.00341007 -0.135357 -0.190204 10.0027
0.78 0.0134346 0.00773884 -0.0131495 -0.0871947 -0.280809 10.0702
0.781 0.0199083 0.000997922 0.00832695 -0.429641 -0.311529 9.98209
0.782 0.000824601 0.00527951 -0.0090877 -0.370155 -0.10856 9.66934
0.783 0.00589322 0.0157988 -0.0201633 -0.0711173 -0.323174 9.83729
0.784 -0.0119024 -0.00734796 0.0153595 -0.463404 -0.128267 9.73983
0.785 0.00378852 -0.00358043 -0.000511369 -0.291523 -0.0831711 9.95621
0.786 0.016419 0.00882545 0.0184458 0.113804 -0.222989 9.8069
0.787 0.000845986 0.0273859 -0.00334405 -0.146521 -0.160107 9.84017
0.788 -0.0151168 0.0143345 -0.00862299 -0.288784 -0.15398 9.61715
0.789 0.00427616 0.00357833 0.00518656 -0.410011 -0.267652 9.80254
0.79 -0.000600428 -0.0158695 0.00954461 -0.409778 -0.461199 9.80838
0.791 0.0118238 0.014849 0.0134472 -0.0734819 -0.324444 10.0918
0.792 0.00435787 0.00110948 -0.00890367 -0.300666 0.0102326 9.98189
0.793 0.00720923 0.0129544 0.0069928 -0.27693 -0.246667 9.79306
0.794 -0.00423726 0.00852419 -0.00335148 -0.371041 -0.112954 9.67391
0.795 0.0123859 0.00847097 -0.00577328 0.0400996 -0.022606 9.91923
0.796 0.00140274 0.0156225 0.00410515 -0.423015 -0.0217348 10.1837
0.797 0.00609669 0.0253371 0.0199863 -0.289516 0.0424155 10.0593
0.798 0.0108188 0.00465415 0.0131169 -0.219205 -0.157192 10.0657
0.799 -0.00930379 0.0224288 -0.0205256 -0.131358 -0.0963711 9.74175
0.8 -0.0115464 0.0151856 -0.00328928 -0.148885 -0.103529 9.74617
0.801 -0.00674514 0.000204949 -0.0089268 -0.0982278 -0.181053 10.0225
0.802 -0.00276223 0.00720378 -0.00485327 -0.154172 -0.191204 9.69977
0.803 0.0102451 0.0136884 0.00603138 -0.310516 -0.358106 9.95451
0.804 0.00141867 -0.00401896 -0.00722978 -0.387291 -0.030369 9.74944
0.805 -0.00405053 0.00676859 -0.00261851 -0.0397378 -0.137856 9.87018
0.806 0.00247477 -0.01799 0.00422025 -0.20944 -0.373774 9.98126
0.807 0.00732831 0.0122242 0.0154686 -0.191711 -0.251095 10.0619
0.808 -0.00699792 0.0077814 -0.0121483 -0.238845 -0.160454 9.75874
0.809 -0.00545163 0.0122172 0.00636156 -0.221849 0.103912 9.92295
0.81 0.0085428 0.0361075 -0.00397819 -0.21574 -0.135828 9.90556
0.811 -0.00057415 0.0208074 0.00919626 -0.140763 -0.281683 9.90825
0.812 0.00443639 -0.00160555 -0.00872017 -0.288996 -0.162147 9.93682
0.813 -8.4444e-05 0.00385217 0.0180507 -0.0872228 -0.0829548 9.95215
0.814 0.00788806 0.0160234 0.00653905 -0.270959 -0.210338 9.97051
0.815 0.000978741 0.0123521 -0.012651 -0.18618 -0.115854 9.87093
0.816 -0.00489186 -0.0050607 0.0134147 -0.155513 -0.0872955 10.0684
0.817 0.00881708 0.020557 0.0105122 -0.382087 -0.0873293 9.90756
0.818 -0.00132238 0.00425758 -0.00971509 -0.175607 -0.0722455 9.89419
0.819 0.00385462 0.00481935 -0.0148183 -0.187108 -0.190631 9.68013
0.82 0.0120015 0.00356683 0.00521741 -0.27674 -0.25573 9.931
0.821 0.00671515 -0.0117866 -0.018251 -0.308123 -0.517096 9.97966
0.822 0.00285689 0.0115016 0.00720821 -0.0996941 -0.175069 9.82115
0.823 -0.0152234 0.025279 0.00691616 -0.303169 -0.263616 9.7944
0.825 0.00488581 0.0229218 -0.000577717 -0.0910314 -0.183107 9.82233
0.826 0.018621 0.0133796 -0.00448565 0.110859 -0.229143 9.76605
0.827 -0.0133533 0.0186587 0.00385404 -0.166393 -0.0679155 9.77483
0.828 0.00621854 0.0152386 -0.00171709 -0.182042 -0.164171 10.0712
0.829 -0.00718459 0.0178477 0.000941984 -0.0533782 -0.084546 9.91308
0.83 0.0198935 -0.00431274 0.0182122 -0.404227 -0.314731 9.70566
0.831 0.00822986 -0.00494029 0.00868946 -0.232748 -0.105344 9.67956
0.832 0.0174586 0.00533474 0.00626384 -0.1453 -0.0800872 9.58438
0.833 0.0167173 0.0120745 -0.0089732 -0.239628 -0.287292 10.066
0.834 -0.0114655 0.019162 0.00069135 -0.388237 0.0904451 9.93925
0.835 -0.000609716 0.0185104 -0.00704054 -0.0594111 -0.0692182 10.1123
0.836 -0.00415465 0.0037469 0.000797013 -0.0922776 -0.169858 9.91971
0.837 -0.00671296 0.00322969 -0.0056521 -0.351957 -0.232641 9.68017
0.838 -0.00226452 -0.0122986 -0.00986853 -0.412345 -0.27945 9.83123
0.839 -0.00416513 0.00240624 -0.00479341 -0.413266 -0.189534 10.0413
0.84 -0.00624769 0.0129308 -0.0139229 -0.428549 -0.176736 9.77491
0.841 -0.0107585 -0.0146779 -0.0216951 -0.32904 -0.269365 9.82162
0.842 -0.00767843 0.0141634 -0.00415431 -0.132855 -0.237123 9.95751
0.843 0.000547426 -0.00652639 0.0101562 -0.0650544 -0.0962712 9.83065
0.844 -1.12786e-05 -0.00713137 0.00163005 -0.29442 -0.199566 10.0399
0.845 -0.0133499 -0.00121915 0.0164163 -0.164425 -0.3318 9.772
0.846 -0.0139684 0.00403886 -0.00182644 -0.296872 -0.144337 10.0254
0.847 -0.00271062 0.019218 -0.00401062 0.00702661 -0.185599 9.7867
0.848 -0.000783484 0.0114385 0.00914247 -0.370399 -0.248948 9.70701
0.849 0.00950891 0.00161909 -0.00171393 -0.239747 -0.115352 9.82057
0.85 -0.00874312 0.0105964 0.0067091 -0.202916 -0.116498 9.77532
0.852 -0.00386195 0.0127418 0.000119227 -0.16065 -0.068493 10.0096
0.853 -0.0311766 -0.00223685 0.00757302 -0.183981 -0.17444 9.87227
0.854 0.0119574 -0.0170897 0.00252853 -0.107285 -0.141992 10.013
0.855 0.0034346 0.0112797 -0.0018669 -0.398792 -0.329335 9.93166
0.856 -0.000901064 0.00281061 -0.0136352 -0.334154 -0.221601 9.8773
0.857 -0.011011 0.0113478 -0.00675347 0.000165458 -0.0517247 9.86717
0.858 0.0148435 0.00486493 -0.00703046 -0.28513 0.0606647 9.88222
0.859 -0.00250934 0.0200365 0.00408849 -0.33317 -0.360043 9.50681
0.86 -0.00296561 -0.000856428 -0.00885531 -0.157563 0.00869753 9.80539
0.861 0.00245875 0.0171488 0.00150425 -0.148513 -0.130534 9.72486
0.862 -0.00611457 -0.00266445 -0.00755467 -0.0574738 -0.103672 9.92418
0.863 0.00204512 0.0230224 0.0052203 -0.234964 -0.275777 9.99007
0.864 -0.00435899 0.0190066 -0.0118441 -0.161977 -0.404226 10.2006
0.865 -0.00298829 0.0201301 0.0264911 -0.0834565 -0.207757 9.92363
0.866 0.0113404 0.0228061 -0.00182912 -0.170322 -0.186108 9.8914
0.867 0.0188944 0.01281 0.00368898 -0.104528 -0.0518863 9.90588
0.868 -0.00260499 0.00481175 0.00195305 -0.231795 -0.221586 9.9599
0.869 0.00792908 -0.0196529 0.0130508 -0.177758 -0.155911 9.70014
0.87 0.00286206 0.0135843 -0.00312207 -0.14662 -0.303456 9.80663
0.871 0.0117071 0.014306 -0.00913959 -0.242514 -0.226453 9.85513
0.872 0.00852132 0.0117369 -0.0056076 -0.357246 -0.323589 9.97963
0.873 -0.00291836 0.0071995 0.00583622 -0.0997727 -0.170448 9.78529
0.874 -0.00566891 0.000699648 -0.0116003 -0.246888 -0.171069 9.65914
0.875 0.00525355 -0.00502927 0.00773811 -0.117555 -0.356349 9.81547
0.876 0.0170332 0.0164903 -0.00887078 -0.411888 -0.357974 9.97883
0.877 0.0054124 0.00532223 0.011588 -0.358436 -0.120944 10.1803
0.878 -0.0184339 0.0051301 -0.00848982 -0.209985 -0.00591769 9.93901
0.879 0.00390711 0.0110987 -0.00500459 -0.256195 0.0466861 9.93745
0.88 0.0150023 -0.0143158 0.00326261 -0.509264 -0.175657 9.90361
0.881 -0.0170179 0.0026026 0.000234106 -0.264906 -0.21818 10.065
0.882 0.00590553 0.00581845 0.000528088 -0.357266 0.0260117 9.84151
0.883 -0.00738704 -0.00214122 0.00361155 -0.10516 -0.105416 10.1042
0.884 0.0134259 0.0120713 -0.00852307 -0.213182 -0.172638 9.7481
0.885 -0.00102748 0.0205873 -0.00986496 -0.455 -0.139999 10.0143
0.886 -0.0042976 0.000282069 -0.00157039 -0.0773703 -0.135933 9.88755
0.887 -0.00699223 0.00422063 0.00826459 -0.214704 -0.19887 9.81109
0.888 -0.000447026 0.0148128 -0.0119498 -0.14048 -0.141828 9.87618
0.889 0.00302166 0.022999 0.00896356 -0.164733 -0.23282 10.0427
0.89 -0.000844635 -0.00371068 -0.0133773 -0.178787 -0.0652134 9.84578
0.891 -0.0166641 0.0216114 -0.00474453 -0.239641 -0.175751 9.90739
0.892 -0.00522931 0.0182696 -0.00572399 -0.322902 -0.338826 9.84582
0.893 -0.00853645 -0.0056945 -0.00125995 -0.347203 -0.140236 9.96356
0.894 0.00132615 0.00930767 0.00997653 0.104999 -0.107279 9.74148
0.895 0.0117816 -0.000492607 -0.00283428 -0.235072 -0.263325 9.95718
0.896 -0.00757524 0.0116613 0.0153751 -0.0318894 -0.217755 9.70576
0.897 0.0211894 0.0262938 0.0079479 -0.26423 -0.057267 9.99206
0.898 -0.0142016 -0.00813582 0.0128598 -0.258166 -0.0150228 9.89798
0.899 -0.017394 0.0147822 -0.0155174 -0.0499743 -0.172047 9.91998
0.9 0.00635686 -0.000338839 0.0103598 -0.172888 -0.0680108 9.64543
0.901 0.00432267 0.01386 0.0157287 -0.277623 -0.287002 9.86079
0.902 -0.00793683 -0.00756116 0.00376785 -0.228477 -0.114937 9.80587
0.903 -0.0136841 -0.012906 -0.0147125 -0.500287 -0.188874 9.98592
0.904 0.00964173 0.00822527 0.00175175 -0.219208 -0.113964 10.0116
0.905 -0.00719126 0.00913705 -0.025019 -0.3489 -0.212029 9.86269
0.906 -0.0114063 0.0152688 0.00288251 -0.115753 -0.232729 9.77996
0.907 0.0102571 -0.0171179 0.00592563 -0.309287 0.133355 9.85081
0.908 -0.00787642 -0.00273083 -0.00754652 0.0734479 0.0301684 9.94726
0.909 1.60868e-05 0.00909891 0.011713 -0.269429 -0.154882 9.93816
0.91 -0.00136928 0.018146 -0.0295227 -0.295042 -0.179867 9.90865
0.911 -0.0156758 0.00248767 -0.0151139 -0.0361047 0.0819871 9.86286
0.912 0.00402842 0.00656468 0.0023816 -0.246541 -0.0199487 9.60851
0.913 -0.00334108 0.013783 -0.00829829 0.0405591 -0.109188 9.74555
0.914 -0.00094327 -0.0033132 -0.0388418 -0.406894 -0.137625 10.1
0.915 0.00107716 -0.00729583 0.00713291 -0.217438 -0.0775894 9.96053
0.916 0.00674868 0.00942296 0.000760253 -0.136263 -0.193806 9.92461
0.917 0.00632266 0.00290898 0.00865992 -0.430786 -0.270928 10.0225
0.918 -0.000363966 0.0222652 0.006225 -0.25441 -0.0566819 9.75285
0.922 0.00856099 0.01004 0.00265485 -0.280024 0.0811914 9.90773
0.923 -0.00852971 0.00099643 -0.00708901 -0.326809 -0.0356374 9.90932
0.924 0.00497676 -0.00112603 -0.01594 -0.190427 -0.147822 10.1349
0.925 -0.013334 0.00999033 0.00315821 -0.208922 -0.361399 9.84077
0.926 -0.0186439 -0.00100533 0.00488607 -0.307245 0.232267 9.8335
0.927 -0.00740511 -7.34957e-05 -0.000900858 -0.167844 -0.00226871 9.97559
0.928 -0.00281601 0.0286607 -0.0147207 -0.220483 -0.296102 10.1078
0.929 -0.0133598 0.00121039 0.0171521 -0.165455 -0.108106 10.108
0.93 0.00793948 0.00208309 0.0135075 -0.227465 -0.468672 9.89966
0.931 0.00495311 0.00459112 -0.00176414 -0.0666715 -0.198815 9.9071
0.932 -0.0046803 0.021799 -0.0115846 -0.351756 -0.352438 9.96722
0.933 -0.00100564 0.0198036 0.0040834 -0.296012 -0.0807633 10.1581
0.934 -0.00638171 0.0100417 -0.0211453 -0.138479 -0.0824909 9.79556
0.935 0.0106831 0.00623582 -0.00998048 -0.149935 -0.111021 10.0721
0.936 -0.0052622 -0.00643643 0.00794842 -0.152618 -0.230762 9.89413
0.937 0.0122244 -0.00449419 0.00724599 -0.407009 -0.141406 9.81936
0.938 0.00322926 0.014271 0.0125026 -0.436011 -0.127639 10.0759
0.939 0.00641681 -0.00923902 0.0266547 -0.298111 -0.41041 9.91537
0.94 0.00204787 0.00772462 0.00792345 -0.30119 -0.0359851 9.79625
0.941 -0.0207394 0.0198914 0.0135141 -0.205832 -0.0981481 9.81551
0.942 0.0140506 0.0122023 0.00566361 -0.212431 0.0380625 10.0683
0.943 0.00713544 0.00157989 -0.0203976 -0.237173 -0.188407 9.87329
0.944 -0.00252033 0.00456212 0.0215393 -0.356865 -0.094689 9.8692
0.945 -0.00226061 0.0170831 0.000741036 -0.388751 -0.291723 9.70537
0.946 -0.00489062 0.00876017 -0.00219608 -0.468729 -0.184303 9.99393
0.947 -0.000912055 0.00702091 -0.00256311 -0.150534 -0.138984 9.79168
0.948 -0.00633461 0.0146086 0.00648506 -0.0636147 -0.108844 9.67012
0.949 -0.0190061 -0.00464861 -0.031321 -0.460218 -0.323264 10.0091
0.95 -0.00372198 0.0252406 -0.00615039 -0.272861 -0.164555 9.81527
0.951 -0.00189186 0.0174665 0.00362888 -0.442085 0.120037 9.78433
0.952 -0.0072594 0.0116053 0.00178501 -0.481733 -0.300691 9.73648
0.953 0.0122508 0.0107276 0.00433604 -0.432555 -0.340269 10.0332
0.954 0.00916563 -0.00282204 0.00102401 -0.267891 -0.0998477 9.7286
0.955 -0.0100392 0.0118965 -0.00929071 -0.288276 -0.480959 9.53988
0.956 -0.0104705 0.00959155 -0.00523821 -0.253301 -0.25611 9.75481
0.957 0.0065112 0.0139817 0.0151635 -0.275513 -0.223413 9.74282
0.958 -0.00677921 0.0158709 -0.00767961 -0.16794 -0.188771 9.73086
0.959 0.0063607 0.00218257 0.00433437 -0.287407 -0.1186 9.94119
0.96 -0.00159453 0.01487 0.0174202 -0.325146 -0.334444 9.7563
0.961 0.00960692 0.013072 -0.0121329 -0.337706 -0.229747 9.74832
0.962 -0.0217279 0.00921383 0.0293443 -0.157622 -0.140332 9.80579
0.963 -0.00373445 -0.000723603 0.0116521 -0.146695 -0.314439 9.73623
0.964 0.00766159 0.00347506 0.00696729 0.0391096 -0.0352505 9.86513
0.965 0.0105236 -0.00180002 0.0127405 -0.101652 -0.0118939 9.925
0.966 -0.0107422 0.00647242 -0.00441143 -0.329195 -0.224105 9.85924
0.967 -0.0117111 0.0222485 0.00385849 -0.322022 -0.275917 9.81956
0.968 0.014609 0.00661839 -0.00567985 -0.324279 -0.28472 9.89706
0.969 0.00225106 0.0261484 0.00505547 -0.384031 -0.163534 9.74712
0.97 -0.000470579 -0.00263189 -0.00956448 -0.497823 -0.0827433 9.86987
0.971 -0.00306156 -0.00685708 -0.0101401 -0.0923124 -0.114858 9.8931
0.972 0.00397308 0.0105139 -0.0166602 -0.119973 0.00553387 9.82454
0.973 0.001053 0.00644681 -0.00691536 -0.411274 -0.263313 10.1094
0.974 -0.00465196 0.0228637 -0.0212984 -0.143109 -0.247047 9.81012
0.975 0.0248544 0.00515995 -0.00214857 -0.259243 0.0161453 9.79223
0.976 -0.0127424 0.00396758 -0.00696973 -0.3601 -0.399491 9.84717
0.977 -0.0161983 0.000557979 -0.00877218 -0.367809 0.0521344 9.73091
0.978 0.0139361 0.00907219 0.0119961 -0.361834 -0.297611 9.96831
0.979 -0.00776084 0.015178 -0.00341511 -0.292575 -0.357682 9.84955
0.98 -0.018337 0.034352 -0.0131585 -0.195589 -0.0356436 9.84135
0.981 -0.0143821 0.0186351 -0.00576115 -0.205738 -0.286071 9.8684
0.982 -0.00681053 0.0246844 -0.0183249 -0.389076 -0.248697 9.86173
0.983 -0.013697 5.07145e-05 -0.0140431 -0.131764 0.0192246 9.74607
0.984 0.0173618 0.00164972 0.0146365 -0.323506 0.0264553 9.7312
0.985 -0.00871601 0.0117243 -0.0130404 -0.267343 -0.162152 10.0446
0.986 -0.0141614 0.00625009 0.00367645 -0.119994 -0.0755616 9.83722
0.987 0.00480668 -0.00123563 -0.0200379 -0.239484 -0.169455 9.85956
0.988 0.0107181 0.0141192 -0.00510651 -0.25466 -0.129796 9.88279
0.989 0.00261696 0.02083 -0.0064266 -0.232163 -0.312389 9.83279
0.99 0.00764101 -0.000645334 -0.00601199 -0.198676 -0.0822324 10.0703
0.991 0.0068807 0.0157183 -0.00920957 -0.157679 -0.288916 9.85041
0.992 0.00156901 -0.00725341 -0.0124176 -0.377615 0.0232119 9.80779
0.993 -0.000379621 -0.0157942 -0.00937832 -0.151763 -0.173011 9.88215
0.994 0.016066 0.0187253 -0.0193443 -0.27843 -0.218003 9.9045
0.995 -0.00468329 0.023552 0.00652221 -0.224857 -0.162104 9.99599
0.996 -0.0104047 0.00663707 0.00481077 -0.281514 -0.151988 9.66382
0.997 -0.00854207 0.0266937 0.00985617 -0.204099 -0.12163 10.01
0.998 -0.00938355 -0.00457618 -0.0137186 -0.160257 -0.197782 9.68426
0.999 -0.0191015 0.0109476 0.0197147 -0.38975 -0.0193952 9.85867
1 -0.00234464 0.00623431 0.00488011 -0.217349 -0.10426 9.89523
1.001 0.00719607 -0.00417157 0.000180642 -0.183165 -0.0405216 9.93663
1.002 -0.00623139 0.0219224 0.00803117 -0.466606 -0.116178 9.82846
1.003 -0.0130105 -0.00500662 -0.0111073 -0.120922 -0.244049 9.99318
1.004 0.00785411 0.00859101 -0.0123994 -0.10491 -0.188053 9.8101
1.005 -0.0288531 0.0150192 -0.0113128 -0.074504 -0.449798 10.0263
1.006 0.000947227 0.00793935 -0.00203371 -0.366269 -0.0644186 9.84751
1.007 -0.00282765 0.0175917 0.000244657 -0.344345 0.0203096 9.76198
1.008 -0.0111478 0.0233063 0.0261066 -0.156185 -0.136953 10.0457
1.009 0.00913687 0.0254074 0.00547409 -0.199928 -0.0152978 9.76995
1.01 -0.0120731 0.00523396 0.00923589 -0.0818603 -0.110788 9.87518
1.011 -0.0128715 0.0232799 0.00623872 -0.193665 -0.15292 9.85693
1.012 -0.0101521 0.0139174 -0.0107025 -0.192121 -0.195382 9.78492
1.013 -0.0111887 0.00666512 -0.000931203 -0.109609 -0.319609 9.95875
1.014 -0.010446 0.00662705 0.00932407 -0.175749 -0.284535 9.90136
1.015 0.00290463 0.00600074 0.0116042 -0.0299738 -0.307295 9.88316
1.016 -0.00640448 -0.0120537 -0.00285544 -0.188091 -0.163743 9.90522
1.017 -0.0102437 0.00313848 -0.00680351 0.00904464 -0.0705359 9.88462
1.018 -0.00109263 0.00507439 0.00954146 -0.582204 -0.244565 9.61024
1.019 0.012482 0.0152029 0.000948726 -0.132231 -0.257103 9.83981
1.02 0.00947678 -0.00562347 0.00798225 -0.304561 -0.114583 9.58806
1.021 0.0203156 -0.00322321 -0.00131345 -0.371978 -0.221655 9.71738
1.022 0.00719689 0.00450361 -0.000210904 -0.0914898 -0.229434 9.84198
1.023 0.00969834 -0.0180217 0.0188586 -0.272748 -0.0102157 9.93205
1.024 -0.0111972 -0.00277931 0.00837464 -0.314642 -0.108599 10.0407
1.025 0.00129376 0.00781712 0.00823835 -0.395673 -0.231861 10.0793
1.026 0.0175812 0.00697976 0.0104545 -0.312038 -0.103308 9.77859
1.027 0.0157231 -0.00938112 -0.0109012 -0.214877 -0.343121 9.92798
1.028 0.0167432 -0.00274738 -0.00145963 -0.175258 -0.147201 9.72798
1.029 0.0187536 0.00499104 0.00531418 -0.0823206 -0.391898 9.98814
1.03 0.00546225 -0.00502369 -0.00820929 -0.163455 -0.330687 9.58421
1.031 0.0153764 -0.00175129 -0.0174981 -0.311976 0.0565633 9.81678
1.032 0.00507968 0.016768 0.00317594 -0.227346 -0.144217 10.0888
1.033 -0.0131017 0.0364056 -0.0052393 -0.138702 0.0923749 9.88039
1.034 -0.000269453 0.0283808 -0.0153814 -0.481107 0.0937587 9.94053
1.035 -0.0106914 -0.00115483 -0.000898255 -0.0547485 -0.114358 9.89663
1.036 0.0211792 0.00375139 -0.0115801 -0.272377 -0.356287 10.1442
1.037 -0.00700522 0.00244157 0.00401238 -0.305633 -0.105189 9.70663
1.038 0.00736477 0.0196514 0.0043202 -0.255777 -0.207252 9.94855
1.039 0.00692257 0.00528886 0.000452858 -0.212606 -0.375502 9.80764
1.04 0.00914046 -4.31842e-05 0.00520247 -0.225431 -0.136668 9.88927
1.041 -0.00819012 0.0200705 0.021716 -0.431883 -0.244324 9.9103
1.042 -0.0182456 0.00527193 0.0118449 -0.277613 0.031538 9.99479
1.043 -0.00360732 0.0198597 0.0066888 -0.256571 -0.45867 9.95355
1.044 -0.00100384 0.0154969 -0.0112511 -0.173159 -0.207824 9.89219
1.045 -0.0154286 0.0123519 0.00805431 -0.211384 -0.122274 9.92479
1.046 -0.0106633 0.0308039 -0.00470374 -0.224067 -0.136309 9.96845
1.047 0.0165141 0.0130424 0.0140221 -0.33312 -0.464666 9.6965
1.048 0.000369153 0.00943268 0.0180466 -0.235278 -0.0888213 9.75788
1.049 0.00531843 0.0181261 0.0133418 -0.445654 -0.240391 10.0325
1.05 0.00168544 0.00279872 -0.0225812 -0.22962 -0.148505 9.85511
1.051 -0.000999858 0.0088866 0.015124 -0.131164 -0.281992 9.92431
1.052 -0.0216548 -0.000190662 -0.0164073 -0.034577 -0.1138 9.61918
1.053 0.00943405 0.0175496 0.00634619 -0.257218 -0.243373 9.78455
1.054 -0.0117118 0.0244692 -0.00128392 -0.488783 -0.00429672 9.81965
1.055 -0.00758713 -0.000122811 0.0227871 -0.122109 -0.105176 9.74063
1.056 0.00364074 -0.00175607 0.00331923 -0.257218 0.10989 9.89212
1.057 -0.0179445 0.00555693 0.00706616 -0.0139791 -0.290081 9.95429
1.058 0.000814053 -0.00340328 0.0225748 -0.3487 -0.207241 9.80588
1.059 -0.00350253 -0.00207311 0.0185133 -0.262243 -0.235195 10.1512
1.06 -0.0018328 0.0267934 0.0110003 -0.158594 -0.351939 10.1031
1.061 -0.0109855 0.00591549 0.00140646 -0.31773 -0.0913113 9.7561
1.062 -0.00615607 0.00482025 0.00268379 -0.12467 -0.203188 9.98995
1.063 -0.0133018 -0.0181914 0.0108217 -0.22466 -0.220302 9.86359
1.064 0.000856121 0.00515981 0.00047075 -0.0896491 -0.0237485 9.87222
1.065 -0.000694767 -0.0025786 -0.00657335 -0.185579 -0.0570647 9.71814
1.066 0.0150816 -0.00247053 0.0120232 -0.107028 -0.281642 9.79832
1.067 -0.00838383 0.00696194 0.0264463 -0.272746 -0.131555 9.99341
1.068 -0.0140907 0.000744544 -0.0193191 -0.425857 -0.354427 10.2068
1.069 -0.00889419 -0.00464055 -0.0129663 -0.186548 -0.144699 9.92226
1.07 0.00867385 0.0167616 -0.00558481 -0.231631 -0.0660657 9.91293
1.071 0.0144768 0.0112103 -0.0156788 -0.209934 -0.196233 9.93809
1.072 -0.00895397 0.0188599 0.0158828 -0.0753786 -0.28216 9.74851
1.073 -0.00944495 0.0130167 -0.00804985 -0.0750332 -0.263229 9.84395
1.074 0.00895708 0.0155051 0.00893965 -0.00866921 -0.0786059 9.89886
1.075 -7.62583e-05 0.00701597 -0.00669744 -0.138666 0.0695566 9.82297
1.076 0.0144534 -0.00492742 0.00842106 -0.26461 -0.183226 9.99782
1.077 0.00573895 -0.00847179 -0.0054097 -0.227433 -0.340809 9.74237
1.078 -0.0178518 -0.0215449 -0.00699339 0.0109995 -0.0550204 9.71057
1.079 -0.00856203 0.00975885 0.011445 -0.403396 -0.00740448 9.95553
1.08 -0.000297128 0.0194881 -0.00947036 -0.179778 -0.0494855 9.99437
1.081 -0.0103362 -0.00767509 -0.00370147 -0.311368 -0.331494 9.98104
1.082 0.00497663 0.0252298 0.00182404 -0.279561 -0.098795 9.85514
1.083 0.00467475 0.00512454 -0.0115738 -0.347074 -0.0701701 9.91111
1.084 0.00390735 -0.000434359 -0.00574906 -0.332367 -0.173598 9.9505
1.085 -0.0231133 -0.00720871 0.00617735 0.0613765 -0.340292 9.89726
1.086 -0.0156985 0.00315685 0.0153175 -0.0532943 -0.0535405 9.88231
1.087 -0.00403869 0.0108784 -0.00464933 -0.0888926 -0.211429 9.87809
1.088 0.0115062 0.00582806 0.00320194 -0.180574 -0.383255 10.1107
1.089 0.00082477 0.00534534 -0.0158595 -0.164493 -0.135124 9.72453
1.09 -0.000530695 -0.00311927 -0.0132691 -0.278304 -0.361774 9.88868
1.091 0.00669712 -0.00359014 0.00517529 -0.324148 0.0111415 9.84474
1.092 0.00333662 -0.00116724 0.00666053 -0.179868 -0.183467 9.74121
1.093 0.0096144 0.00923616 0.0049507 -0.253826 -0.107964 9.98634
1.094 -0.0045735 -0.0227804 -0.00393738 -0.269777 -0.0874191 9.85359
1.095 -0.0135303 -0.00514089 -0.0114722 -0.276775 -0.293555 9.98098
1.096 -0.0137486 -0.00214093 -0.00179582 -0.227641 -0.158172 10.089
1.097 0.00417337 0.00204142 0.00855558 -0.323431 -0.266765 9.77006
1.098 -0.00403737 -0.00512613 0.0075103 -0.129995 -0.301092 9.80336
1.099 -0.00464496 0.00328531 0.00342773 0.00873807 -0.278203 9.82479
1.1 0.0113248 0.00801714 0.010157 -0.0965667 -0.123982 9.78649
1.101 0.00308663 0.00877493 0.000988365 -0.186775 -0.122086 9.92047
1.102 0.0107494 0.0168639 -0.0118831 -0.505925 -0.160684 9.86962
1.103 0.0125894 0.00965714 -0.0124581 -0.155825 -0.217299 9.94068
1.104 -0.0158922 0.0283366 -0.0182304 -0.246222 -0.0451236 10.0352
1.105 0.012228 0.0180365 -0.0113526 -0.381047 -0.228164 10.0973
1.106 -0.00691517 -0.00712432 -0.00978144 -0.107359 -0.11309 9.93646
1.107 -0.0171593 0.00508923 -0.013471 -0.0511814 -0.103369 9.89674
1.108 -0.00824779 -0.00108938 0.0071442 -0.364196 0.022522 9.7742
1.109 -0.00843008 0.00949741 0.0192458 -0.29028 -0.183503 9.80411
1.11 -0.00263536 -0.00786824 0.00525351 -0.309299 0.0275015 10.0132
1.111 0.000658799 -0.0020275 0.0089929 -0.466109 -0.118822 10.0001
1.112 -0.0058085 -0.00933357 0.00767997 -0.0591488 -0.0631183 10.0561
1.113 0.0171763 -0.00101227 0.00659386 -0.109448 -0.219812 9.8185
1.114 -0.00420056 0.00409859 0.00108446 -0.312912 -0.176822 9.79886
1.115 -0.0112558 0.00273786 0.00291162 -0.241587 -0.214927 9.80624
1.116 0.00212384 0.0058075 -0.0171643 -0.144122 -0.210187 10.0044
1.117 -0.0053003 0.0238015 -0.00155147 -0.27802 -0.30564 9.86216
1.118 -0.00293333 0.0215793 0.00414792 -0.288932 -0.0746652 9.57879
1.119 -0.00506255 -0.0021637 -0.0357633 -0.145184 -0.135209 9.71082
1.12 -0.00935915 0.00546452 0.00901553 -0.282171 -0.148738 9.95541
1.121 0.0112656 0.000254413 -0.00958324 -0.374975 -0.0219334 9.89128
1.122 -0.000456398 -0.0110707 0.00537611 -0.182106 -0.343748 9.60637
1.123 -0.00680765 0.00573215 -0.00239912 -0.190218 -0.321532 10.1687
1.124 0.0052605 -0.000902076 0.00453804 -0.287491 -0.0569397 9.84579
1.125 -0.00755724 -0.011722 0.00600743 -0.233135 -0.181049 9.98946
1.126 -0.024744 0.00659595 0.00728454 -0.108731 -0.182946 10.0329
1.127 -0.018779 0.0189729 -0.00184014 -0.270567 -0.119494 9.80634
1.128 0.00046382 0.00424781 0.0116268 -0.194621 -0.18826 9.90032
1.129 0.0139199 -0.00722609 0.0101639 -0.273962 -0.14179 10.0258
1.13 0.0136755 -0.00126647 0.00079547 -0.336158 -0.196854 9.819
1.131 0.00537935 0.0149441 -0.00635711 -0.28071 -0.120369 9.70392
1.132 -0.00524628 0.01623 0.0175254 -0.297293 -0.0327492 9.76674
1.133 0.00252115 -0.00525045 -0.0051909 -0.308105 -0.143626 9.89682
1.134 -0.00580666 -0.00330669 -0.00629659 -0.129085 -0.264709 9.75176
1.135 -0.00715398 -0.00389984 -0.000662958 -0.296587 -0.0891357 9.89803
1.136 -0.0137222 0.0125784 -0.00495318 -0.108259 -0.155007 9.78294
1.137 0.0244142 -0.0101489 -0.0153182 -0.321367 -0.101909 9.96761
1.138 -0.0168789 -0.0129822 -0.0153095 -0.385672 -0.33601 9.72666
1.139 -0.0029822 0.0255769 -0.00320499 -0.177717 -0.257766 9.93302
1.14 0.00454892 -0.0005064 -0.0110411 -0.247773 -0.403006 9.84211
1.141 -0.00645418 -0.00946923 -0.0132661 -0.370873 -0.203851 9.84103
1.142 -0.00354967 0.0273914 0.00150834 -0.466292 -0.35082 9.73119
1.143 0.0168767 0.00828125 -0.0160467 -0.364299 -0.0201639 10.037
1.144 -0.0142464 0.0106253 -0.00284573 -0.343144 -0.213587 9.87993
1.145 -0.00485548 -0.00632478 0.00906878 -0.309156 -0.381834 9.9026
1.146 0.00828579 0.0123339 0.000910669 0.00733236 -0.425312 9.94092
1.147 -0.0222225 0.00425021 0.00290921 -0.168541 -0.00669874 9.9183
1.148 0.00316936 -0.00224787 0.00574439 -0.461312 -0.254951 9.9644
1.149 0.00931363 -0.000751782 -0.00136168 -0.165946 -0.316804 9.6607
1.15 -0.0200898 0.0103127 -0.0105692 0.0772741 -0.341016 9.86437
1.152 0.00645963 -0.0130914 0.01102 -0.143197 0.0435859 10.0753
1.153 -0.00662159 0.0116901 0.00969356 -0.463898 -0.333184 9.54678
1.154 -0.0232664 0.025935 -0.00335882 -0.0603833 -0.267121 10.1736
1.155 -0.00894443 0.00705892 0.00972405 -0.277884 -0.0232949 9.76848
1.156 0.0011317 -1.31102e-05 0.00393508 -0.0869036 0.0753054 9.96666
1.157 0.00147179 -0.0123461 -0.00441118 0.149013 -0.0924357 9.88632
1.158 -0.00324758 0.0233316 0.00355213 -0.333497 -0.447851 9.64256
1.159 -0.0242635 0.00565922 0.00101816 -0.363081 -0.252019 9.73826
1.16 0.00315011 -0.00827276 0.00840901 -0.325078 -0.2709 9.8812
1.161 0.0135392 0.0115576 -0.0115242 -0.108653 -0.308107 10.0234
1.162 -0.0185263 0.00141759 0.00654335 -0.215238 -0.229524 10.0201
1.163 -0.00157595 -0.0159679 -0.00109135 -0.341965 -0.108247 9.87028
1.164 0.0302793 0.00622198 0.0114113 -0.164478 -0.27481 9.86255
1.165 -0.00760426 0.00874413 0.00618745 -0.30437 -0.202093 10.0083
1.169 -0.0139817 0.0051847 0.0038661 -0.203459 -0.172299 9.8543
1.17 -0.005305 0.0173266 0.0210564 -0.332977 -0.101093 10.2648
1.171 -0.0257635 -0.00111551 -0.000858217 -0.00392023 -0.182282 9.66836
1.172 0.00537887 0.0184603 0.010825 -0.196725 -0.186827 9.83921
1.173 0.014602 -0.000774935 -0.0198628 -0.137089 0.0812728 9.93886
1.174 0.0143378 0.0148697 -0.00289665 -0.248531 -0.249223 10.0266
1.178 0.00333164 -0.00298118 0.0116779 -0.246928 -0.275176 10.2194
1.179 0.00493129 -0.0035419 0.0212407 -0.1473 -0.141562 9.84086
1.18 -0.0260145 0.00021798 0.0102385 -0.404349 -0.208353 9.89258
1.181 -0.0041912 0.0172192 -0.0134247 -0.370174 0.103343 9.89826
1.182 -0.0134687 0.00996253 -0.000165622 -0.11932 -0.0605082 9.98378
1.183 0.00745706 0.0139068 0.00690649 -0.599896 -0.284092 10.0834
1.184 0.0098546 0.00251158 0.00140164 -0.356346 -0.13411 10.0468
1.185 0.000878577 0.00774485 0.0110945 -0.20947 -0.38826 9.72908
1.186 -0.0158929 0.00729417 -0.0190491 -0.411219 -0.170646 9.96333
1.187 0.00890609 -0.0063301 0.0230076 -0.344897 -0.265846 10.0306
1.188 -0.00378819 0.00253635 -0.00613261 0.0980903 -0.0285981 10.2052
1.189 0.0117185 0.0180898 -0.0042463 -0.409804 -0.173747 9.74034
1.19 0.000621401 0.0253026 0.00903269 -0.196719 -0.150383 9.96851
1.191 -0.0115764 0.0168408 -0.0102354 -0.24121 -0.181351 9.84801
1.192 0.0163361 0.0289226 -0.00540488 -0.186058 -0.140874 9.96103
1.193 0.00333986 0.0166525 -0.014769 -0.253231 -0.282225 9.91304
1.194 -0.000848363 0.0196517 -0.018589 -0.342753 -0.19795 9.9493
1.195 -0.00235299 -0.0122524 0.00158305 -0.0144523 -0.221394 9.92518
1.196 -0.00725307 0.0154832 -0.00077786 -0.013257 0.00641708 9.8634
1.197 0.00272525 -0.0049091 0.000321977 -0.31813 -0.0323317 9.64384
1.198 0.0115951 0.00110142 0.00664233 -0.3104 -0.0992204 9.80958
1.199 0.0162038 -0.000143297 0.0010158 -0.234333 -0.227522 9.79871
1.201 -0.0138725 -0.00460337 0.00474535 -0.0472078 -0.301077 9.85642
1.202 -0.0187844 0.0166511 -0.00116371 -0.395042 -0.107046 9.88789
1.203 -0.00248248 0.00412329 -0.0221803 -0.347634 -0.0778495 9.67863
1.204 0.00242334 -0.0149437 0.00675432 -0.303069 -0.178159 9.94246
1.205 -0.0093706 0.015078 -0.0119749 -0.186697 -0.344691 9.89661
1.206 0.00598507 0.0199316 -0.00171041 -0.0653862 -0.206594 9.92805
1.207 0.0288458 0.0123326 0.00573094 -0.142562 -0.117191 9.98965
1.208 0.0116922 0.00088447 -0.00678586 -0.281473 -0.209017 9.85596
1.209 -0.00116237 0.0205377 -0.0094738 -0.179766 -0.15272 9.8085
1.21 -0.00481722 -0.000421554 0.0132936 -0.246418 -0.17972 10.0554
1.211 -0.0210344 -0.00950758 -0.0081632 -0.2191 -0.164396 9.89543
1.212 -0.00770229 0.0136109 -0.00326596 -0.3816 -0.253538 9.72057
1.213 0.00724709 0.0136753 -0.00484512 -0.144471 -0.00524146 9.74978
1.215 -0.00515467 -0.0128427 0.00208515 -0.100181 -0.37299 9.7795
1.216 -0.00405162 -0.00388332 0.0128108 -0.167563 -0.128941 9.7642
1.217 -0.00514963 -0.00504764 -0.0104102 -0.326399 -0.0628731 9.88349
1.218 0.0207796 0.0236623 -0.014121 -0.253889 -0.178887 9.78131
1.219 -0.015171 0.00291952 -0.00371772 0.0497722 -0.120355 10.0174
1.22 -0.00679719 0.00229774 0.00238307 -0.295327 0.00785161 9.97169
1.221 -0.0170418 -0.0132838 -0.0156493 -0.0845369 -0.441611 9.92939
1.222 0.00837096 -0.00305449 -0.0234637 -0.16728 -0.520225 10.1548
1.223 0.00873717 -0.0108877 -0.0111236 -0.394261 -0.171965 9.77302
1.224 0.0025103 0.0173089 0.0127215 -0.159191 -0.387026 9.72508
1.225 -0.00181735 -0.0011856 0.000394352 -0.395152 -0.237109 10.0263
1.226 0.00727138 0.00147523 0.00975299 -0.216532 -0.146833 9.74847
1.227 -0.0129315 -0.00749569 0.00906549 -0.321052 -0.190418 9.86934
1.228 -0.0106562 0.0159311 0.0117254 -0.175598 -0.417147 9.80703
1.229 -0.020786 -0.0131825 -0.00334348 -0.0297354 -0.152457 9.86384
1.23 0.0105354 0.015661 -0.00250976 -0.405679 -0.226862 9.83705
1.231 -0.00780166 0.0131791 -0.00270068 -0.309987 -0.146474 9.86694
1.232 0.00826161 0.00782778 0.0210469 -0.212254 -0.275194 9.83021
1.233 0.00479663 0.00367402 -0.00950735 -0.0975855 -0.169961 9.82374
1.234 0.00771962 0.00528053 -0.00674338 -0.357343 -0.20968 9.88157
1.235 -0.00386886 -0.0204054 -0.00281423 -0.32843 -0.305888 9.73289
1.236 0.00725422 0.00640533 0.00719051 -0.219214 -0.378328 9.87563
1.237 -0.00217026 -0.00304724 -0.00763958 -0.082098 -0.092322 9.96964
1.238 -0.00836541 0.0195458 -1.43607e-05 -0.273031 -0.358376 9.93642
1.239 0.00512574 -0.0150707 0.00680119 -0.284257 -0.166078 10.0496
1.24 0.000700993 -0.0033993 0.00620842 -0.391052 -0.101679 9.87846
1.241 -0.0081836 0.0114363 -0.0109944 -0.248809 -0.149857 9.74279
1.242 0.00702652 0.00352088 0.0207324 -0.145435 -0.318172 9.83814
1.243 0.0123773 -0.00203092 -0.0189235 -0.302561 -0.207025 9.6937
1.244 -0.0149484 0.00483539 0.00109491 -0.189703 -0.249583 10.1299
1.245 -0.0047586 -0.00236988 -0.00413465 -0.19871 0.0124399 9.90833
1.246 -0.00643592 0.0148637 -0.00258324 -0.345576 -0.143813 9.78662
1.247 0.00672442 -0.000958507 0.0186647 -0.324897 -0.0805314 9.83527
1.248 -0.00959637 0.0158814 0.0256297 -0.314191 -0.330058 9.74059
1.249 0.0122449 -0.00670968 0.00493591 -0.420184 -0.121091 9.95212
1.25 -0.0059774 0.00718051 0.00036737 -0.277065 -0.0672711 9.80775
1.251 -0.00552826 0.0171128 0.0113193 -0.144801 -0.038849 9.88168
1.252 0.00995067 0.00922322 -0.00221187 -0.320607 -0.262508 9.92834
1.253 -0.00749991 0.00431893 0.011998 -0.0873879 -0.569292 9.97525
1.254 0.0135805 0.00471974 -0.000235384 -0.268614 -0.261483 10.1029
1.255 0.0310169 0.00633212 -0.0185897 -0.231826 -0.211289 9.72268
1.256 0.0188231 0.00417638 0.00489615 -0.184303 -0.172237 9.95725
1.257 -0.0132201 -0.0180404 -0.00150362 -0.0294837 -0.362019 9.91543
1.258 0.0173468 0.00963487 -0.00625938 -0.301219 -0.269523 10.1486
1.259 -0.000190128 0.0160536 -0.00209839 -0.340022 -0.3081 9.98071
1.26 -0.0111179 -0.001346 0.0102453 -0.396829 -0.175024 9.80374
1.261 -0.0035695 0.00114619 -0.010461 -0.324467 -0.236806 10.01
1.262 0.00291665 -0.0103238 -0.0226773 -0.441549 -0.290103 9.59592
1.263 -0.00599595 0.00281897 -0.0166728 -0.201699 -0.330089 9.88956
1.264 0.0124717 8.75661e-05 0.000716361 -0.208854 -0.0861353 9.98094
1.265 0.00264606 0.0158057 -0.0169787 -0.227692 -0.332323 9.89303
1.266 -0.0149462 0.0118662 0.00834551 -0.331872 -0.139866 9.67383
1.267 0.00331562 0.0109478 -0.00383339 -0.191422 -0.162168 10.1469
1.268 -0.00367063 -0.000414865 0.00515478 -0.423119 -0.247826 9.89413
1.269 -0.0212003 0.0239286 0.0192139 -0.177144 -0.026512 9.84224
1.27 0.000466197 -0.00907252 0.00456812 -0.323518 -0.157356 9.55171
1.271 0.00889208 0.00819475 0.0116628 -0.348471 -0.293736 9.5761
1.272 0.00399935 0.00104961 0.00814891 -0.0482887 -0.0419134 9.94007
1.273 -0.000740408 0.0245375 -0.00728622 -0.0495384 -0.203754 9.6386
1.274 -0.00335506 -0.0335451 -0.00117743 -0.362445 -0.193279 9.87361
1.275 0.00451875 0.00554471 0.0095216 -0.270912 -0.185775 9.9601
1.276 0.00369952 -0.010746 -0.0102014 -0.376373 -0.282234 9.77383
1.277 -0.0284555 -0.00165032 -0.0181018 -0.151105 -0.347832 9.5048
1.278 -0.00312455 -0.00123709 -0.00399089 -0.233942 -0.0916195 9.8948
1.279 -0.0101785 -0.0241152 -0.000560359 -0.470906 -0.23682 9.90064
1.28 0.00943487 0.00153473 -0.0108574 -0.0224532 -0.157588 9.81887
1.281 0.0225634 0.00504078 0.00256719 -0.100446 -0.166765 9.72637
1.282 -0.00497271 0.0130439 0.00630364 -0.286687 0.0954021 9.78094
1.283 -0.00218732 0.0026466 -0.00357036 -0.156266 -0.3309 9.80691
1.284 0.00459926 0.000828676 0.0102295 -0.0744593 -0.307522 9.99032
1.285 -0.00305546 0.00158304 -0.00324761 -0.139777 0.148631 9.8337
1.286 -0.0104153 0.00534823 -0.0147527 -0.28414 -0.128279 9.90177
1.287 -0.000307872 0.0147064 -0.00847446 -0.161618 -0.21943 9.90662
1.288 0.0204362 -0.00216935 -0.00170969 -0.0900006 -0.319628 9.78837
1.289 0.0124808 0.0213176 0.0237196 -0.237857 -0.148494 9.79578
1.29 -0.0142193 -0.0065935 -0.00585709 -0.130649 -0.26737 10.1337
1.291 -0.00897057 0.0046391 -0.0117727 -0.115311 -0.269013 10.0899
1.292 0.00817069 -0.00899283 -0.00299968 -0.260144 -0.231663 9.84945
1.293 0.00880121 -0.000558459 -0.0143477 -0.382906 -0.204359 9.64388
1.294 0.0239151 0.000419982 -0.00558834 -0.213059 -0.181643 9.77936
1.295 0.0112573 0.0102856 0.0161616 -0.235151 -0.172627 9.72066
1.296 -0.0171994 -0.00430091 -0.0105554 -0.311756 -0.259727 9.98221
1.297 -0.00265193 0.0170748 0.00950091 -0.458172 -0.0855687 9.86058
1.301 -0.0113055 0.00575594 0.00617067 -0.361378 -0.0790754 9.85559
1.302 0.00571246 0.00816413 0.00300575 -0.363188 -0.377708 9.87323
1.303 -0.0125144 0.00916838 0.00490271 -0.23011 -0.355292 9.7697
1.304 0.0188848 -0.000586283 0.00103049 -0.125809 -0.169892 10.0064
1.305 0.000128566 0.00140265 0.0130898 -0.464493 -0.313201 9.71504
1.306 -0.0234889 0.011712 0.00295769 -0.279761 -0.12589 9.72217
1.307 -0.00709681 0.0020272 -0.00250244 0.0240012 -0.123119 9.95945
1.308 0.00150156 0.00505855 0.00758431 -0.132725 -0.140916 9.93256
1.309 0.0194213 0.00171773 -0.0093503 -0.3636 -0.138389 9.87407
1.31 -0.0104024 -0.0050098 -0.00752218 -0.294792 -0.133921 9.79507
1.311 0.000216217 0.00884964 -0.0129564 -0.367756 -0.273876 9.96164
1.312 -0.0169023 0.00417123 -0.00153295 -0.213334 -0.216543 9.96317
1.313 0.011713 0.0329071 -0.0113971 -0.269088 -0.247776 10.0106
1.314 -0.00111235 -0.000417182 0.00426172 -0.323321 -0.119431 9.89041
1.315 0.00131365 0.00895823 -0.0130954 -0.297118 -0.344053 9.79252
1.316 0.00999168 -0.00186524 0.00115627 -0.0903028 -0.285036 9.72805
1.317 -0.00549245 0.0028766 0.0154268 -0.275299 0.0971178 9.64126
1.318 0.00832639 0.0223345 -0.00713172 -0.321693 -0.250085 9.84832
1.319 -0.00788772 0.00905376 0.0245001 -0.251985 -0.274721 9.94088
1.32 0.0105742 0.0178159 -0.0243453 -0.217954 -0.206033 9.7679
1.321 -0.00963926 0.00652153 -0.0212866 -0.208873 -0.314968 10.0425
1.322 -0.0119481 0.00208351 -0.00475653 -0.246766 -0.224421 9.72686
1.323 -0.00607306 0.0132156 0.00393874 -0.31836 -0.192336 9.85778
1.324 0.00198585 -0.0152167 -0.00833548 -0.0712329 -0.422314 9.82214
1.325 0.00746945 0.0124383 0.00670364 -0.226255 0.114 9.72621
1.326 -0.00216748 0.00952093 -0.0099336 -0.0242431 -0.396064 9.94444
1.327 -8.0722e-06 0.0251659 0.0034622 -0.25662 -0.16899 9.7758
1.328 -0.0105184 -0.0011024 0.0146336 -0.555076 -0.244301 9.84972
1.329 0.0135812 0.00177638 -0.0135063 -0.378717 -0.0381839 9.89377
1.33 0.010037 -0.00514976 0.00535365 -0.182247 -0.15625 9.92492
1.331 -0.0094848 -0.0121903 0.00642386 -0.22863 0.0198344 9.76319
1.332 -0.00697492 0.00515616 0.0168262 -0.142776 -0.320013 9.86075
1.333 0.00264086 0.0134739 -0.0108315 -0.109507 -0.483498 9.79795
1.334 0.00247032 -0.00311022 -0.0127922 -0.20858 -0.168566 9.93868
1.335 -0.000622369 0.00682938 -0.00245995 -0.374379 -0.172635 9.81523
1.336 -0.00681075 0.0386095 0.00104808 -0.484047 -0.312758 9.79737
1.337 -0.0109661 0.00405753 0.022191 -0.227948 -0.0207698 9.92185
1.338 4.5489e-05 0.00628629 0.014974 -0.180493 0.00590531 9.9011
1.339 0.000958297 0.0101848 0.00103207 -0.294483 -0.159265 10.2335
1.34 -0.00886396 0.00639702 -0.00161375 -0.107847 -0.239051 10.1293
1.341 0.00422091 -0.00622354 8.5961e-05 -0.157707 -0.172673 9.77238
1.342 -0.00932436 0.00375963 -0.00552053 -0.190833 -0.0274914 10.0875
1.343 -0.0173923 0.00065344 -0.00258173 -0.335272 -0.320395 9.84232
1.344 0.0119201 -0.00386977 0.0317652 -0.207997 -0.0413291 10.0521
1.345 0.00595163 0.00792433 0.0135457 -0.260662 -0.166379 10.2157
1.346 -0.00380647 0.0180137 0.0199788 -0.336126 -0.265886 9.77062
1.347 -0.0183132 0.0113296 -0.00924802 -0.194144 -0.322479 9.91225
1.348 -0.0140137 0.0240364 0.0131046 -0.0434997 -0.310571 9.82402
1.349 -0.00120182 0.00913544 -0.00120921 -0.235253 -0.105525 9.80782
1.35 -0.0112891 0.0161091 -0.0118003 -0.182003 -0.291488 10.0153
1.351 -0.00738382 0.00443136 -0.0082815 -0.0857614 -0.141578 9.98111
1.352 -0.00407004 -0.0108687 -0.00776215 -0.212188 -0.31768 9.95876
1.353 0.0126403 -0.0251156 0.0131213 -0.0554477 -0.109373 9.84999
1.354 -0.00745493 0.0164363 0.00556867 -0.430552 -0.274682 9.96796
1.355 -0.00399488 0.0132381 -0.00278666 -0.267412 -0.16016 9.8582
1.356 -0.0167143 0.00559553 0.00612207 -0.273968 -0.0936976 9.90423
1.357 0.0087164 0.020473 0.00592138 -0.188116 -0.215729 9.95338
1.358 -0.00717065 -0.00376175 0.000848379 -0.170442 -0.35513 10.1994
1.359 -0.01431 0.000494971 0.00806795 -0.281534 -0.213628 9.72725
1.36 -0.00142634 -0.00932973 -0.0127403 -0.0813244 -0.257843 10.0994
1.361 0.00789113 0.00531381 -0.005955 -0.463569 -0.122854 9.73051
1.362 0.00346486 -0.0135726 0.019895 -0.265938 -0.228273 9.72925
1.365 0.0109331 0.0113211 0.0189263 -0.321689 -0.0147399 9.97873
1.366 -0.00801691 0.0163708 0.000590836 0.116937 -0.15002 9.91085
1.367 0.00252668 0.013459 0.000531488 -0.320604 -0.231713 9.61904
1.368 0.0109821 0.00776674 -0.00454384 -0.215622 -0.0137015 9.80724
1.369 -0.00120626 -0.00145258 0.00165742 -0.177696 -0.213393 9.77104
1.37 0.0209961 -0.00460383 -0.00485892 -0.100915 -0.346061 9.80209
1.371 0.0144799 0.0165535 -0.0196674 -0.250311 -0.1282 9.93978
1.372 -0.00471949 0.00557052 0.0112244 -0.296953 -0.205965 9.85445
1.373 -0.000718338 0.00585237 -0.0060324 -0.273544 0.0278583 9.64519
1.374 -0.00128806 0.00530371 0.000896084 -0.263933 -0.0407346 9.65005
1.376 0.000310975 -0.00595629 -0.00191301 -0.273882 -0.138596 9.60538
1.377 0.00171972 -0.0178867 0.00168854 -0.142823 -0.0766198 10.0455
1.378 -0.00518126 0.00168393 0.0158707 -0.172953 -0.052851 10.0076
1.379 0.000725583 -0.0144293 0.0102923 -0.289477 -0.239119 10.0387
1.38 0.00140644 0.00746016 0.0150287 -0.521219 -0.189519 9.98329
1.381 -0.00379128 0.0101629 -0.00254687 -0.327072 -0.144507 10.1648
1.382 -0.0132169 0.00708818 -0.0119231 -0.242874 -0.150045 9.92354
1.383 -0.00805187 -0.00502488 0.00251038 -0.263768 -0.0694578 10.2644
1.384 -0.00309659 0.0137763 0.0123193 -0.313495 -0.0272852 9.99771
1.385 0.00471791 0.0158234 0.0133728 0.0199344 -0.534118 10.0644
1.386 -0.00840509 0.0122413 0.0177649 -0.0072524 -0.206399 9.91725
1.387 0.0107931 -0.0109855 -0.00538438 -0.26895 -0.110868 9.76091
1.388 -0.00436054 0.0111838 -0.00390468 -0.438133 -0.288256 10.0674
1.389 -0.0139733 0.00412243 0.00392129 0.0141542 -0.318452 10.0269
1.39 -0.0136032 -0.000108806 -0.00696386 -0.36932 -0.218864 10.069
1.391 0.00275233 0.00695099 0.00541434 -0.122562 -0.306534 9.6872
1.392 0.00225087 0.00938526 0.0135694 -0.186391 -0.251498 9.78765
1.393 -0.019178 0.00754967 -0.000131864 -0.443854 -0.0778034 9.6677
1.394 0.00663453 -0.00124741 -0.0162005 -0.246636 -0.153943 9.70052
1.395 -0.000348237 0.00350735 -0.00334672 -0.313013 -0.369738 9.71837
1.396 -0.0119931 0.0139973 0.0205766 -0.180306 -0.182886 9.76931
1.397 -0.017549 -0.0150696 -0.00550488 -0.143447 -0.288643 9.82317
1.398 0.000169109 -0.0142498 0.0096504 -0.218403 -0.218954 9.79725
1.399 -0.00162813 -0.00719468 0.00838092 -0.237248 -0.0426641 10.0356
1.4 0.00556125 -0.0193855 -0.0141528 -0.0902502 -0.230835 9.85622
1.401 -0.00842652 -0.0143963 0.0023487 -0.050369 -0.291063 10.1515
1.402 -0.00368403 0.00501361 -0.00818133 -0.25901 -0.146244 9.73011
1.403 -0.01344 0.0112818 0.00123779 -0.128231 0.035406 9.91373
1.404 0.0164852 0.00826926 0.000298715 -0.299423 -0.167735 9.76811
1.405 -0.000786712 0.0182302 -0.0274425 -0.375233 -0.236351 9.93515
1.406 -0.0075421 -0.00780737 0.0024564 -0.151724 -0.189609 9.92603
1.407 0.00546392 0.0112681 0.0109157 0.0330929 -0.14198 9.89088
1.409 -0.0189883 -0.00448735 0.00014923 -0.0831844 -0.0593313 10.0019
1.41 0.0118015 0.0160429 0.0102442 -0.428773 -0.255029 9.77553
1.411 0.00843069 0.0138535 0.0074393 -0.231157 -0.198347 9.9021
1.412 0.0152512 0.00563953 0.0109474 -0.139935 -0.126245 9.65205
1.413 -0.00267275 0.00758087 -0.0153247 -0.353649 -0.17842 9.67305
1.414 -0.00653914 0.0218333 0.00260832 -0.374134 -0.230532 9.80558
1.415 0.00439773 0.00308363 -0.0165843 -0.344081 0.100484 9.83731
1.416 -0.0170312 0.0153536 -0.0209003 -0.20517 -0.245653 9.88458
1.417 0.00204333 -0.00593684 -0.00231949 -0.12865 -0.124396 9.72558
1.418 -0.00971827 0.0127103 -0.00336568 -0.194134 -0.335149 9.88018
1.419 0.00328174 -0.0120836 -0.0221093 -0.300556 -0.195927 9.9641
1.42 0.000456605 0.00621744 0.00576938 -0.330259 -0.124274 9.94625
1.421 0.0309046 0.0257235 0.00443617 -0.309251 -0.0630077 9.87332
1.422 0.0076357 0.0101484 0.0117737 -0.0306779 -0.0857144 10.0093
1.423 -9.18185e-05 0.00710706 0.00149242 -0.207447 -0.215356 9.81656
1.424 -0.00726312 -4.74781e-06 0.00165787 -0.30194 -0.16603 9.67073
1.425 -0.00841057 0.0135325 0.00584751 -0.253197 -0.155076 9.89146
1.426 0.0172443 0.00839875 0.0121782 -0.0479979 -0.0340047 10.0583
1.427 0.00207876 -0.0106516 2.01651e-05 -0.314504 -0.128371 9.86716
1.428 -0.0215975 -0.0146293 0.000342892 -0.284772 -0.105604 9.92043
1.429 -0.00496922 -0.0023218 -0.0296678 -0.151128 -0.201241 9.77104
1.43 0.0244559 0.0095057 0.00518651 -0.460504 -0.341479 10.1228
1.431 -0.0114243 -2.87896e-05 -0.00324091 -0.177953 -0.0582106 9.99937
1.432 0.000123979 0.0102142 -0.00291598 -0.421699 -0.0726281 9.87027
1.433 0.00916791 0.00641275 -0.00808733 -0.351689 -0.239364 9.83951
1.434 -0.007911 0.0120892 -0.000924188 -0.300185 -0.0312923 9.84977
1.435 0.00963413 -0.00564731 -0.00633105 -0.173503 0.0565544 9.7459
1.436 -0.00331422 0.0192456 0.011809 -0.105458 -0.085205 9.86835
1.437 -0.0142961 0.00420275 -0.00398368 -0.160169 -0.10851 9.68683
1.438 -0.00220826 0.00784431 -0.00612019 -0.22496 -0.0983634 9.86528
1.439 -0.00577396 0.0179657 0.00597008 -0.190499 0.0474387 9.79302
1.44 0.0118896 0.0132447 0.00313311 -0.212091 -0.1195 9.63256
1.441 -0.0119603 -0.00434442 -0.0110192 -0.339919 -0.333815 10.0468
1.442 -0.00521501 0.0016018 -0.0155031 -0.28789 -0.196467 9.86343
1.443 -0.0102787 0.00721772 -0.00907002 -0.291357 -0.210137 10.0266
1.444 -0.0149776 -0.00219914 0.00429956 0.00151519 -0.29239 9.8424
1.445 -0.010418 0.0129041 -0.000800138 -0.279268 -0.135323 10.0204
1.446 -0.00928056 0.00847288 0.00682234 -0.0612931 -0.105454 9.66383
1.447 -0.00264479 0.0238485 0.00830006 -0.335888 -0.196024 9.77019
1.448 -0.0119528 0.0144919 -0.0177453 -0.329364 -0.0122385 9.76713
1.449 0.00294025 0.0063953 0.0187214 -0.159323 -0.148639 9.88155
1.45 0.00378071 0.00488518 -0.0104001 -0.0194772 -0.305356 9.73411
1.451 0.000900968 0.0233473 -0.00331393 -0.260303 -0.312908 9.86922
1.452 -0.00312171 0.0116832 -0.0118836 -0.31133 -0.517797 9.97647
1.453 -0.00147869 0.0220015 -0.00792545 -0.0737923 0.101002 9.79627
1.454 -0.000618575 0.0314538 0.000678514 0.0175892 -0.00394963 9.99464
1.455 -0.0109492 -0.0134628 0.0159976 -0.299338 -0.0711312 9.75691
1.456 -0.00428433 0.010772 -0.00540496 -0.192124 -0.179796 9.74911
1.457 0.00438349 0.00848246 0.00867549 -0.273129 -0.211702 9.95018
1.458 0.00280383 0.0157068 0.015856 -0.180417 -0.12179 9.7979
1.459 0.0134293 0.0162911 0.0124206 -0.131601 -0.0968725 9.94286
1.46 -0.0111274 0.00373505 -0.00197318 0.0303912 -0.0880395 9.75394
1.461 0.00298034 0.0120095 0.0193627 -0.117746 -0.10563 9.55759
1.462 0.00255756 0.0213093 0.0118186 -0.233068 -0.348409 10.0008
1.463 0.00252598 0.0176163 0.00948269 -0.248068 -0.131877 9.9137
1.464 -0.000837192 -0.00700243 0.00784614 -0.238051 -0.109108 10.0167
1.465 0.0125159 -0.0074719 -0.0179085 -0.413467 -0.163068 9.89509
1.466 -0.00591282 -0.00911348 -0.00778176 -0.269079 -0.106507 10.0077
1.467 -0.00671832 0.00288319 -0.0273967 -0.261301 -0.325499 9.7389
1.468 -0.00688961 -0.00407117 -0.0106894 -0.301759 -0.262219 9.90993
1.469 -0.00234684 -0.00473259 -0.00129787 -0.306641 -0.0698279 9.83763
1.47 0.00271901 0.0117394 0.0208169 -0.278917 -0.255828 9.56881
1.471 0.00645397 0.00460826 0.017041 -0.0946091 -0.173588 10.0399
1.472 0.00743865 0.0297583 0.00737929 -0.27189 -0.0448147 9.92521
1.473 -0.0121831 0.0127241 0.0083745 -0.321344 -0.325881 10.0124
1.479 -0.00852447 0.0102923 -0.0138429 -0.0690088 -0.00779187 9.81158
1.48 -0.012356 0.00111263 -0.0177094 -0.1726 -0.367616 9.9428
1.481 0.00675981 -0.00306872 -0.00143968 -0.041473 -0.198139 9.99917
1.483 0.00149417 0.00536646 -0.0173469 -0.279483 -0.2868 10.0969
1.484 -0.00480845 0.029344 -0.00888196 -0.0940061 -0.16454 9.85703
1.485 0.013688 0.0105948 0.0092987 -0.242174 -0.0317814 9.85183
1.486 -0.0234175 0.0117595 0.0129653 -0.269647 -0.0455241 10.0661
1.487 0.00368382 -0.00603673 -0.010922 -0.282169 -0.308038 9.95944
1.488 -0.0144353 0.0164399 0.010537 -0.538764 -0.106328 9.75328
1.489 0.00822948 0.0134849 0.000845558 -0.086834 -0.226572 9.88072
1.49 0.00395949 0.0137328 0.0101472 -0.250028 -0.293893 9.73562
1.491 0.0129708 -0.00179994 0.0154324 -0.16401 -0.362635 10.0317
1.492 -0.012441 -0.00799556 0.00400155 -0.212078 -0.191635 9.87775
1.493 0.00226155 -0.00911377 0.00452312 -0.189196 -0.219719 9.75338
1.494 -0.0201535 0.0179095 0.00233172 -0.335261 -0.412799 9.82861
1.495 -0.000603454 -0.000237954 -0.00179956 -0.281745 -0.209325 9.69947
1.496 0.00345492 -0.00236773 -0.00323018 -0.0518396 -0.111371 9.90926
1.497 -0.000110958 -0.00499499 0.0130246 -0.196395 -0.0195589 9.71483
1.498 -0.00041546 0.00387911 -0.0103993 -0.290784 -0.359411 9.84727
1.499 -0.0164892 0.0267598 0.00628868 -0.272655 0.0372506 9.63866
1.5 -0.00887249 0.0286243 0.0156861 -0.28706 -0.276515 9.78052
1.501 -0.00353179 -0.00287893 0.0221849 -0.0950535 -0.305501 9.77719
1.502 -0.00371674 0.0254594 -0.0114419 -0.317736 -0.137475 9.68586
1.503 -0.00863606 0.0180211 -0.0175252 -0.158713 -0.123732 9.7481
1.504 -0.0120256 0.0201095 -0.00447259 -0.242805 -0.284692 9.87726
1.505 0.00245942 0.0204445 0.014562 -0.239505 -0.172907 9.73044
1.506 -0.010143 0.00690585 -0.00953867 -0.297088 -0.258576 9.81765
1.507 -0.00870151 0.0133346 0.0229329 -0.156344 -0.208282 9.78209
1.508 0.00159135 -0.00512784 0.0115436 -0.26415 -0.112519 9.86108
1.509 0.00141562 -0.00567857 0.00153909 -0.364297 -0.159505 9.83817
1.51 -0.00308293 0.00956234 0.00463632 -0.230008 -0.178101 9.85827
1.511 -0.00835686 -0.01361 0.00991855 -0.260765 0.0867689 10.0437
1.512 0.0253807 -0.00123042 0.00959718 -0.161251 -0.162538 9.6971
1.513 0.0137999 -0.00509086 -0.00133012 -0.25729 -0.179081 9.67045
1.514 0.0127933 0.0135082 -0.0148675 -0.12715 0.115473 9.8264
1.515 0.0116964 0.000136938 0.00631701 -0.181075 -0.342921 9.90736
1.516 0.0123388 0.0120083 0.00986606 -0.082765 -0.202883 9.93212
1.517 -0.0185583 0.0129211 -0.0129962 -0.0836999 -0.135234 9.88421
1.518 -0.0133306 0.00257513 0.00803099 -0.426894 0.0311617 10.1129
1.519 -0.00831601 -0.0166902 -0.0114166 -0.0547876 -0.184088 9.76573
1.52 0.00935545 0.00992883 0.00354073 -0.0247039 -0.0755006 9.55266
1.521 0.0114386 0.0181937 0.00392755 -0.214674 0.0244511 9.95009
1.522 -0.00643921 -0.0123259 -0.00137623 -0.248994 -0.291357 9.90204
1.523 -0.0182251 -0.0119296 0.0135431 -0.32133 -0.162319 9.75408
1.524 -0.0183774 0.00912445 -0.00312793 -0.250689 -0.217459 9.91003
1.525 -0.00331267 0.00525653 0.00247532 -0.22232 -0.313106 9.91382
1.526 -0.014813 0.0232453 0.000330043 -0.138212 -0.235246 9.78614
1.527 -0.0107493 -0.000641724 -0.0161134 -0.141784 -0.0689982 9.67478
1.528 -0.00573315 0.0207807 -0.0050635 -0.24195 -0.285204 9.80107
1.529 -0.00353301 0.0136604 -0.00200368 -0.116284 -0.471064 10.0279
1.53 -0.00477616 0.00226342 -0.00137619 -0.113999 -0.146511 9.8605
1.531 -0.0117816 0.0080591 0.00276864 -0.12329 -0.29597 9.72283
1.532 -0.00238998 -0.0165812 0.00176877 -0.603749 -0.0228915 9.75866
1.533 -0.0224136 -0.00723384 0.00221046 0.0196293 -0.144892 9.85379
1.534 -0.00621721 0.00577648 -0.0203707 -0.204715 -0.0764414 9.93027
1.535 -0.00646566 -0.00180863 -0.00988811 -0.0921264 -0.258155 9.88553
1.536 0.0101809 -0.00232085 0.00309478 -0.170928 -0.310189 9.70166
1.537 -0.0086772 0.00907017 -0.0103693 -0.0995734 -0.0215288 9.76814
1.538 0.00187345 0.00212143 0.00108639 -0.384227 -0.0751364 9.98753
1.539 0.0154844 0.00732993 0.00382713 -0.102427 -0.242021 9.94704
1.54 0.000593941 0.0112349 -0.0164668 -0.0323433 -0.0601152 9.93128
1.541 -0.0201029 0.0107204 -0.000366979 -0.260394 -0.120146 10.1794
1.542 -0.000560921 0.00948951 0.00406898 -0.254299 -0.431225 9.87985
1.543 -0.0149154 0.00355571 -0.00842072 -0.156289 -0.0706343 9.87599
1.544 -2.93985e-05 -0.0137591 -0.00847194 -0.271452 -0.318761 9.79959
1.545 -0.0101406 -0.0140662 -0.00939721 -0.059999 -0.00106692 9.72457
1.546 0.00088851 -0.00671125 -0.0116648 0.0343527 -0.385131 9.98321
1.547 -0.00463905 0.0168789 -0.0188022 -0.407097 -0.260811 9.52038
1.548 -0.0116613 -0.00687959 0.0062621 -0.247073 -0.205905 9.8227
1.549 0.00521074 0.0133952 0.0116115 -0.396128 -0.124888 9.97124
1.55 0.0147391 0.00995967 0.0128335 -0.342159 -0.153554 9.87062
1.551 -0.0040351 0.00402091 -0.0177062 -0.0758025 -0.195466 9.79454
1.552 -0.010981 0.0111463 -0.00132612 -0.427653 -0.212113 10.0137
1.553 -0.000896656 -0.000981996 -0.0105072 -0.0474942 -0.0310722 9.81544
1.554 0.0208201 0.0197601 -0.0160198 -0.29594 -0.139336 9.63004
1.555 -0.0135294 -0.00376553 0.000794273 -0.0816054 -0.0378547 9.6876
1.556 0.003093 0.0068528 -0.00305578 -0.0614819 -0.194316 9.73749
1.557 0.007472 -0.00358792 0.0108243 -0.113629 -0.0832028 9.99349
1.558 -0.0116911 0.0142387 0.0157149 0.0177028 -0.131062 9.85136
1.559 -0.00608647 0.00982044 0.0177651 0.0855541 -0.141322 9.79848
1.56 -0.00151948 -0.01477 -0.00495144 -0.320025 -0.102773 9.95187
1.561 -0.00616999 0.000340918 -0.00834937 -0.215659 -0.252538 9.89298
1.562 -0.00564766 -0.00704331 0.000418301 -0.204283 -0.333631 9.90254
1.563 0.00630306 0.00111933 -0.00697035 -0.245253 -0.198399 9.91386
1.564 -0.00624815 -0.0208011 0.00476559 -0.334046 -0.374617 9.69404
1.565 0.00458923 -0.00346301 -0.00260559 0.0552976 -0.0538563 10.064
1.566 0.0101863 0.00086738 -0.0215875 -0.127 -0.217726 9.92866
1.567 -0.0118923 0.00422521 -0.00229434 -0.0991858 -0.257198 9.89538
1.568 -5.13353e-05 0.00325069 -0.0137899 -0.292485 -0.249307 9.81476
1.569 -0.0188473 -0.00428799 -0.0031753 -0.415529 -0.255719 9.8217
1.57 0.0184857 -0.00872004 -0.00189709 0.0507514 -0.28355 9.90272
1.571 -0.00574749 -0.00261123 -0.027987 -0.195832 -0.119914 9.70814
1.572 -0.0043036 -0.00736517 -0.0122455 -0.470098 -0.0162001 9.87323
1.573 -0.00147097 -0.00300594 -0.00725095 -0.277743 -0.193535 9.85202
1.574 0.00685984 0.0171752 -0.00460651 -0.382183 -0.114345 9.84478
1.575 -0.0071642 0.02243 -0.00452436 -0.211775 -0.298879 10.004
1.576 -0.0220438 0.0047767 -0.00675897 -0.238115 -0.329264 9.90919
1.577 0.00786507 -0.00860848 0.0174068 -0.23041 -0.120809 9.98225
1.578 0.00208056 0.0071593 0.00163715 -0.497405 -0.294417 9.79724
1.58 0.00299064 -0.00976415 0.00138791 -0.329168 -0.04139 10.0087
1.581 -0.0120915 0.0076234 0.0103773 -0.207687 -0.252471 10.0133
1.582 0.00339692 0.00518105 0.00167224 -0.147612 -0.262703 9.87535
1.583 -0.0150729 0.0180502 -0.004203 -0.199074 -0.0479419 9.99502
1.584 -0.00833053 -0.0139132 0.00161503 -0.191817 -0.0132321 9.85012
1.585 -0.0132295 -0.00911354 -0.000947949 -0.14895 -0.172496 9.8098
1.586 0.015726 0.0074361 -0.0143941 -0.346044 -0.25214 9.91408
1.587 0.000923017 -0.0153153 -0.00514981 -0.309656 -0.0583034 9.59766
1.588 0.0117982 0.00336887 -0.00346194 0.0375886 -0.27433 9.81891
1.589 0.0110901 0.00212712 0.00501783 -0.164366 -0.0185008 9.96511
1.59 0.00735629 0.0135988 -0.0170811 -0.254225 -0.140968 9.84943
1.591 -0.00320389 0.0161296 0.00132719 -0.247423 -0.22616 9.66498
1.592 0.0104239 0.00194966 0.00340866 0.0747338 -0.261731 9.81528
1.593 0.001513 0.00620739 -0.0119244 -0.305093 -0.178813 9.89382
1.594 -0.00531121 -0.00305912 -0.0178982 -0.226125 -0.190657 9.97722
1.595 -0.019609 -0.0112435 0.00372066 -0.0150224 -0.144061 9.90858
1.596 0.0174644 0.00323097 -0.00716443 -0.242288 -0.186076 9.84293
1.597 -0.0202783 -0.00353927 0.016487 -0.145833 -0.318883 9.904
1.598 -0.0147327 0.000261275 -0.0247463 -0.235512 -0.31729 9.92978
1.599 0.00141283 0.00655223 0.0069485 -0.228147 -0.141258 9.868
1.6 -0.00447568 -0.00249968 -0.00883199 -0.361442 -0.0462223 9.88058
1.601 -0.00885157 0.00215001 0.0047114 -0.233993 -0.285946 9.85261
1.602 0.00891302 0.0193948 0.00860047 -0.410794 -0.378761 9.90839
1.603 -0.00766746 -0.00328823 -0.0117184 -0.162556 -0.139208 9.8886
1.604 0.00187987 -0.000653516 0.0151987 -0.262017 -0.364706 9.87256
1.605 -0.00567481 0.018307 -0.00395272 -0.350063 -0.0867105 9.89372
1.606 0.0112709 0.0126086 0.0101355 -0.306125 -0.127262 9.78754
1.607 0.00877435 0.00503237 0.0203439 -0.127281 -0.037393 9.86349
1.608 0.0116545 0.0130566 0.0129031 0.0365599 -0.0496799 9.8686
1.609 -0.0064857 0.0099664 -0.00773148 -0.341288 -0.2519 10.0788
1.61 0.00145491 0.0102082 0.0135633 -0.30654 -0.059234 9.98658
1.611 -0.00441549 -0.0148781 -0.00302539 -0.20877 -0.17949 9.91607
1.612 0.00962557 0.0052509 -0.0001268 -0.278489 -0.204173 9.72989
1.613 -0.0113811 0.0270927 0.00739457 -0.319684 -0.108476 10.038
1.614 -0.0132279 0.00356246 0.0128416 -0.127267 -0.205059 9.78859
1.615 0.00363786 -0.00280218 -0.0153278 -0.169902 -0.174969 9.73186
1.616 -0.00251421 -0.00965443 0.0105039 -0.33779 -0.0713021 10.1056
1.617 0.0147955 -0.0122743 0.0101258 -0.294782 -0.25096 9.85269
1.618 -0.00325976 -0.000900903 0.0049781 -0.128443 -0.198154 9.74524
1.619 -0.0139436 0.0174384 0.0218605 -0.164479 -0.188426 10.0667
1.62 0.0134428 -0.000743185 -0.00740869 -0.181356 0.00415433 9.89104
1.621 0.00158806 0.0124298 -0.00386507 -0.340107 -0.19449 10.1116
1.622 0.00345695 -0.000708415 0.00987247 0.00264515 -0.262407 9.80567
1.623 0.00168759 -0.0169187 0.00997663 -0.00397225 -0.130722 9.85756
1.624 -0.00920519 0.0286571 0.00703938 -0.119792 0.0622558 9.7584
1.625 -0.0107817 0.038486 -0.000668098 -0.315316 -0.270246 9.95923
1.626 0.000246394 0.00960413 0.0116491 -0.0750509 -0.222373 9.85922
1.627 -0.0070096 0.0258329 0.00820556 -0.153328 -0.120677 9.77184
1.628 0.0193241 0.000640528 -0.0145291 -0.379864 -0.170115 10.0971
1.629 0.00109665 0.00474324 0.00650121 -0.195218 0.0940392 10.0002
1.63 -0.00313661 0.0253949 -0.0033735 -0.184877 -0.182369 9.88988
1.631 0.00479472 -0.0035509 0.000796578 -0.30432 -0.0606946 9.97908
1.632 -5.90128e-05 0.00512965 -0.0156044 -0.326604 -0.0398492 9.64822
1.633 0.00183139 -0.00942698 -0.00365717 -0.230851 -0.26665 9.89189
1.634 0.00355262 -0.00691845 0.0120262 -0.255518 -0.281697 9.87369
1.635 0.00938145 0.000793578 -0.00513171 -0.107474 -0.263487 9.64966
1.636 -0.0106543 0.0174791 -0.0160401 0.023734 -0.207005 9.80238
1.637 -0.00709623 0.000131767 -0.0101647 -0.0407374 -0.270551 10.0246
1.638 -0.00761014 -0.0029419 -0.00239625 -0.323293 -0.213837 9.87988
1.639 -0.0137436 0.00754391 -0.0116967 -0.208113 -0.00184358 9.97595
1.64 -0.000841192 0.020143 0.0232642 -0.0965812 -0.177496 9.77023
1.641 0.0244516 0.00378934 -0.012333 -0.165772 -0.107421 9.68802
1.642 0.00530362 -0.0273465 -0.0150284 -0.184456 -0.17931 9.87248
1.643 -0.00716266 -0.00631732 0.00624259 -0.11827 -0.149306 9.62435
1.644 0.00156107 0.0142744 0.010359 -0.397138 -0.35717 9.99651
1.645 0.0134027 -0.00106347 -0.00329648 -0.257481 -0.0811358 9.80643
1.646 0.00435622 0.0278841 0.016437 -0.158854 -0.024407 9.98262
1.647 -0.013109 0.0132265 0.00890307 0.0627062 -0.290966 9.99463
1.648 0.0174327 -0.00415152 0.000721095 -0.285666 -0.275085 9.87881
1.649 0.00772707 0.0193307 0.0146759 0.00890305 -0.285524 10.15
1.65 0.00659755 0.0114789 0.0066102 -0.344517 -0.167344 9.80519
1.651 -0.00129692 0.000755443 -0.00115672 -0.23355 -0.172147 9.97144
1.652 0.00308553 -0.00542118 -0.00710683 -0.293337 0.138924 9.92444
1.653 -0.0084657 -0.00312933 0.00239931 -0.377371 -0.0723354 9.72209
1.654 0.00652204 -0.00682882 -0.00928061 -0.299843 -0.0865518 10.1177
1.655 -0.0258794 0.00214338 0.0069132 -0.316943 -0.0449415 9.74378
1.656 -0.0104236 0.00258719 -0.0215269 -0.182916 -0.361564 9.88425
1.657 -0.00579925 0.0134135 -0.0157125 -0.252188 -0.264306 9.80196
1.658 0.00994946 0.0153371 0.0197042 -0.163187 -0.294695 9.86061
1.659 -0.000598086 0.011238 0.0110856 -0.37341 -0.292174 10.0115
1.66 0.000517198 0.000166186 -0.000876721 -0.242808 -0.241989 9.89485
1.661 0.00973838 0.0122836 0.00831317 -0.279209 -0.315677 9.79493
1.662 -0.00657 0.00205851 -0.00660114 -0.263358 -0.0353921 9.94478
1.663 -0.00199852 0.00858242 0.000392793 -0.166784 -0.0472836 9.89892
1.664 0.000372412 -0.00221979 -0.00876225 -0.180052 -0.0558582 9.80052
1.665 0.0108284 0.0118242 0.0161278 -0.222318 -0.1479 9.98558
1.666 0.00488227 0.0126471 -0.00194619 -0.428981 -0.0296011 9.95669
1.667 0.00163661 0.007519 0.00127222 -0.277693 -0.0862361 9.95084
1.668 0.00397356 -0.00587533 -0.00119216 -0.437257 -0.154864 9.90151
1.669 0.0241524 0.0159177 0.0115703 -0.258613 -0.218364 9.75033
1.67 -0.003028 0.0105059 -0.00258769 0.0744049 -0.367683 9.86615
1.671 -0.00672261 0.000687008 0.00886716 -0.211165 -0.296162 9.76387
1.672 0.010212 0.0137632 0.00570206 -0.306297 -0.336378 9.95068
1.674 -0.0056461 0.0125664 0.00761067 -0.288594 0.0749156 9.90238
1.675 -0.00360159 0.0206057 -0.00843864 -0.209762 -0.106093 9.8924
1.676 -0.00664311 0.00189888 0.00783264 0.0802426 -0.115163 9.97785
1.677 0.0174159 0.00831671 0.00992142 -0.320928 -0.0356036 9.96502
1.678 -0.0105928 0.0179017 0.00608641 -0.144798 -0.119606 9.89537
1.679 0.0101282 0.0165484 -0.00432488 -0.191257 -0.262422 9.77593
1.68 0.0116271 0.0091531 0.00690148 -0.292368 -0.0679808 9.69066
1.681 -0.0197104 0.00691427 -0.00298294 -0.204813 0.109003 9.70412
1.682 -0.00755503 0.0095601 -0.00629166 -0.529252 -0.287249 9.90976
1.683 0.0126137 0.0137309 0.00154687 -0.208769 -0.215197 9.86829
1.684 -0.0220238 0.0163235 -0.00757861 -0.339292 -0.332476 9.77608
1.685 -0.00577168 0.0105699 0.00777003 -0.179182 -0.170122 10.1002
1.686 -0.00428813 0.00696378 -0.00671532 -0.297956 -0.0496383 9.72783
1.687 0.00164842 -0.00641524 -0.029991 -0.087693 -0.166866 9.73314
1.688 -0.0127351 -0.00871998 -0.00949408 -0.137048 -0.0561327 9.80214
1.689 0.000276024 -0.00917408 -0.0261463 -0.118164 -0.17251 10.0971
1.69 -0.00690756 0.0097263 0.00452864 -0.31006 -0.193478 9.97474
1.691 0.00410154 0.0101154 0.00973163 -0.357475 -0.243828 9.95893
1.692 0.00851724 0.00620229 -0.00728048 -0.296806 -0.224815 9.95768
1.693 0.0179148 0.00134806 -0.000186199 -0.18123 -0.246569 9.99233
1.694 0.00665922 -0.000328365 -0.00188427 0.0511988 -0.285848 9.91106
1.695 0.0076632 0.000160929 -0.0191108 -0.114702 -0.149742 9.94609
1.696 -0.00650383 0.0100849 0.00581178 -0.0374053 -0.0726502 9.88518
1.697 0.00276744 0.00722408 -0.0158687 -0.414015 0.0373964 9.73452
1.698 0.00210185 -0.00719575 -0.0167105 -0.148654 -0.262466 9.86837
1.699 0.00820492 0.00984723 -0.00287676 -0.357643 -0.370731 9.91713
1.7 0.00627513 0.0100416 0.00793973 -0.269691 -0.116644 9.86206
1.701 0.00575204 0.00812363 -0.000454203 -0.228237 -0.0274235 9.85633
1.702 -0.00313492 0.0123108 -0.0265131 -0.220713 -0.129394 9.83723
1.703 -0.0127726 0.00721599 0.0119409 -0.235403 -0.128394 9.71712
1.704 -0.0307777 -0.0065898 -0.000191922 -0.0697151 -0.458385 9.80548
1.705 -0.0120736 0.00189294 -0.00494734 -0.1663 0.078526 9.88502
1.706 -0.00267803 -0.00401021 0.00636447 -0.18047 -0.4258 9.82759
1.707 0.0170506 -6.55095e-06 -0.0231063 -0.385879 -0.317031 9.97781
1.708 0.00237403 0.0137131 -0.0064321 -0.416163 -0.0196545 10.0981
1.709 0.00948554 0.00235698 -0.0138287 -0.256646 -0.078961 9.9839
1.71 0.00143859 -0.00486345 0.00171382 -0.352338 -0.135906 9.82672
1.711 -0.00618686 -5.30077e-05 0.0106541 -0.361446 -0.215881 9.9889
1.712 -0.00276177 -0.00877747 -0.00534933 -0.325061 -0.169226 9.98117
1.713 -0.00194189 -0.00112393 -0.00273479 -0.0622154 0.0440849 9.90681
1.714 -0.0127081 0.0154185 -0.0016601 -0.234241 -0.298141 9.80308
1.715 0.00166817 -0.00173986 -0.00372381 -0.292525 -0.317691 10.0563
1.716 -0.0101437 0.0247818 0.0252088 -0.208893 0.0464383 9.69688
1.717 0.0016617 0.0162113 0.00656403 -0.12762 -0.223668 9.7681
1.718 -0.00427737 0.00799441 -0.00644176 -0.440924 -0.181809 9.81856
1.719 0.00591705 -0.00592027 -0.0163629 -0.0246736 0.0566382 9.91908
1.72 -0.0171934 -0.00130189 -0.00516536 -0.32202 -0.129371 9.85382
1.721 -0.00818673 0.0206229 0.00299511 -0.178742 -0.0939374 9.78803
1.722 0.00521542 -0.00473429 -0.00386079 -0.229433 -0.136652 9.85058
1.723 -0.00536772 0.00085774 -0.00283407 -0.134823 -0.0204038 10.0046
1.724 0.0191059 0.0172675 -0.00510526 -0.294236 -0.210397 9.54847
1.725 0.0130579 0.01053 -0.000238382 -0.177225 -0.261526 9.90256
1.726 -0.00726433 0.0069073 0.00510818 -0.0544724 0.00778185 9.92567
1.727 0.00175365 0.00426865 -0.0220296 -0.445645 -0.214516 9.7895
1.728 0.00740409 0.0142924 -0.00746428 -0.185991 -0.231149 9.84474
1.729 -0.00745678 -0.00780582 -0.0137542 -0.105671 -0.343307 9.82918
1.73 0.00105846 -0.00153812 -0.000749021 -0.147334 -0.299628 9.91558
1.731 -0.00154054 0.0135864 0.0155653 -0.188453 -0.041192 9.79651
1.732 0.018718 4.96611e-05 0.00939619 -0.181056 -0.309476 9.75785
1.733 0.00325385 -0.00182277 0.0109549 -0.280692 -0.275025 9.99948
1.734 -0.0191439 -0.00464375 -0.0269545 -0.266716 -0.111274 9.86072
1.735 -0.00683404 0.00862409 0.000358424 -0.23104 -0.119627 9.90215
1.736 -0.0114907 -0.00866044 0.00227974 -0.159695 -0.189371 10.0183
1.737 -0.0178987 0.0208897 -0.00314572 -0.339766 -0.319171 9.9789
1.738 -0.00829552 0.00369979 0.00380538 -0.256719 -0.0401968 9.46958
1.741 -0.0023129 0.00510918 0.0132487 -0.457729 0.183755 10.0002
1.743 0.00436777 0.00829193 -0.00737778 -0.182467 -0.204724 9.80401
1.744 -0.015766 0.00818647 0.0196511 -0.242589 -0.126627 9.90333
1.745 0.0142564 -0.0042083 0.00133905 -0.301928 -0.126587 9.66704
1.746 0.00596673 0.00213513 0.00650376 -0.301204 -0.01478 9.93014
1.747 -0.00727095 -0.014933 2.82211e-05 -0.257374 0.0329987 9.991
1.748 -0.00801257 0.0187691 -0.00196013 -0.382124 -0.290454 9.97555
1.749 0.00447179 0.0168263 -0.00692555 0.0256056 -0.209359 9.86402
1.75 -0.00604121 0.00246135 0.00750234 -0.226839 -0.175432 9.91683
1.751 -0.00332832 -0.0117783 0.0213479 -0.165038 -0.111302 10.0503
1.752 -0.0054835 0.00485252 0.00255259 -0.237385 0.179575 9.77214
1.753 -0.00480955 0.0208867 0.0178262 -0.195913 -0.150684 9.94377
1.754 -0.0160522 -0.00363501 -0.00143658 -0.0593865 -0.274089 9.83481
1.755 -0.000725411 0.00905622 0.000514831 -0.222829 -0.269816 10.0461
1.756 0.0186125 -0.0114513 0.0141482 -0.439009 -0.101306 9.71301
1.757 0.00216736 0.0136844 -0.00430683 -0.373447 -0.268618 9.74068
1.758 -0.00944487 0.0143363 0.00177489 -0.148958 -0.103748 10.0578
1.759 -0.012512 0.0165488 0.00424469 -0.321968 -0.199958 9.76661
1.76 -0.0122141 0.0188783 -0.00773785 -0.308834 -0.132476 9.83876
1.761 0.00665998 0.0222925 -0.00831038 -0.0704408 -0.13057 9.6583
1.762 -0.00723271 -0.00188043 0.00214781 -0.228252 -0.154905 9.80759
1.763 0.0145329 0.01787 -0.00449702 0.0296138 -0.178547 9.89414
1.764 -0.00369632 0.0131712 0.00514584 -0.274907 -0.190123 9.82592
1.765 -0.00694743 0.0306865 0.00595017 -0.0975052 -0.353253 9.68492
1.766 0.00660401 0.0240144 -0.000835728 -0.331715 -0.252432 9.97812
1.767 -0.00445907 0.00484237 -0.00943428 -0.288646 -0.0405794 9.81225
1.768 -0.0105787 0.00641279 -0.00877978 -0.121268 -0.340216 9.76821
1.769 0.0183181 -0.0111479 0.0151373 -0.44631 -0.373274 10.0357
1.77 0.00493322 -0.0105207 0.0145158 -0.141611 -0.118266 9.8069
1.771 -0.0139373 -6.79902e-05 -0.00514285 -0.180615 0.0601597 9.87807
1.772 -0.0282002 0.00542781 -0.0104446 -0.284226 -0.113742 9.9421
1.773 -0.00155758 -0.001385 0.0018226 -0.0832517 -0.355245 9.78086
1.774 -0.00177326 0.0102985 0.00024884 -0.226499 -0.115126 9.9303
1.775 -0.00513554 0.0156128 -0.00140216 -0.159247 -0.0811364 9.73316
1.776 -0.0103751 0.00582579 -0.0214569 -0.360639 -0.0773292 10.0898
1.777 -0.011243 0.00192959 -0.00462209 -0.316707 -0.107108 9.60067
1.778 -0.00489472 -0.0126091 0.00439446 -0.163081 -0.206507 9.91687
1.779 0.00671316 -0.00430974 -0.00535454 -0.226129 -0.121886 9.81512
1.78 -0.00845555 0.0181539 -0.00052028 -0.24529 -0.156649 10.0723
1.781 -0.0095496 0.00252005 0.00196167 -0.308326 0.00627465 9.94605
1.782 -0.00395832 -0.00337573 0.00913839 0.00191794 -0.13182 9.70093
1.783 0.00909718 0.00774676 -0.00475856 -0.497432 -0.031758 10.0125
1.784 -0.00144377 -0.000125013 0.00448671 -0.290128 -0.183908 10.0259
1.785 -0.00864725 -0.00662385 -0.000209408 -0.128864 -0.0476656 9.91705
1.786 -0.0122512 0.0167441 -0.00802958 -0.245558 0.0993453 9.95344
1.787 -0.016271 -0.000473178 0.00290406 -0.288382 -0.209463 10.028
1.788 -0.000138823 0.0153683 -0.00599803 -0.263295 -0.187427 10.1618
1.789 0.0127372 0.0156405 -0.0120132 -0.203235 -0.112528 9.84261
1.79 0.00131313 0.0130751 0.00364254 -0.150686 -0.406428 10.0502
1.791 0.00315823 0.0114606 0.000635598 -0.221014 -0.278936 10.1505
1.792 -0.01364 -0.0019084 0.00476904 -0.338538 -0.206185 9.82028
1.793 0.0110227 -0.000351142 -0.0027891 -0.26943 -0.262964 9.77531
1.794 0.0167101 0.0152677 0.00603602 -0.159006 -0.458654 9.85516
1.795 0.00282774 0.0249122 0.0156446 -0.0758339 -0.267178 9.79292
1.796 0.00676712 -0.00652596 -0.00210149 -0.631255 -0.173596 9.6105
1.797 0.00346945 0.00133269 0.00708233 -0.145616 -0.0900432 9.60368
1.798 -0.00870519 0.00193437 0.0168754 -0.329859 -0.124543 9.91919
1.799 0.0153 -0.00582382 -0.00300145 -0.0944638 -0.261383 10.0463
1.8 0.0277185 0.0221938 -0.00154383 -0.395484 -0.111958 9.86568
1.801 -0.0252992 0.0184238 0.00724586 -0.23065 -0.306615 10.0359
1.802 0.00123904 0.0156986 0.0218996 -0.355866 -0.0609728 9.90599
1.803 0.00686704 -9.39464e-05 -0.00593644 -0.459901 -0.283999 9.87063
1.804 -0.00160718 0.0101409 -0.0305253 -0.245405 -0.0837002 9.89342
1.805 -0.00948812 0.00780168 0.0108276 -0.149145 -0.111343 9.63523
1.806 0.00842366 -0.00661924 0.00140057 -0.278335 -0.0892721 9.84052
1.807 -0.0154477 0.00722551 -0.00551882 -0.216311 -0.251837 9.84449
1.81 0.0077617 7.6557e-05 0.00351313 -0.155752 -0.0790305 9.60491
1.811 -0.00102397 0.0180889 -0.0187258 -0.264402 -0.234545 9.86081
1.812 0.0036124 -0.00315246 0.00760911 -0.218415 -0.191865 9.84623
1.813 0.0108058 -0.00238252 -0.00854811 -0.221822 -0.204724 10.0229
1.814 -0.0030879 0.00472779 -0.000571546 -0.0721412 -0.0396636 9.82997
1.815 -0.0142857 0.0102648 0.00563642 -0.379391 -0.015292 10.1118
1.816 0.00211112 0.0038455 -0.0060451 -0.259249 -0.240203 9.75688
1.817 0.0210744 -0.00913175 -0.000298835 -0.287742 -0.237919 9.82636
1.818 -0.00553658 0.0187535 -0.0349762 -0.122115 -0.32987 9.715
1.819 -0.00391669 -0.0103169 0.0109858 -0.244745 -0.0757668 10.1214
1.82 0.0173911 -0.00718461 -0.0128793 -0.241322 -0.1505 9.87311
1.821 0.00216782 0.00169767 0.00209116 0.00455387 -0.344942 9.88277
1.822 0.00471849 0.00537194 -0.0103867 -0.104866 -0.200401 9.91039
1.823 -0.00342089 0.015151 -0.00805916 -0.26254 0.060929 9.85896
1.824 0.00135494 0.0201402 0.00590355 -0.217395 -0.133338 9.81806
1.825 -0.00280265 -0.00957821 -0.0149728 -0.0599129 0.019457 9.90287
1.826 -0.00817325 0.0177835 0.00907367 0.0916902 -0.178974 9.9774
1.827 0.012452 -0.00106742 0.013408 -0.270189 -0.0991446 10.0516
1.828 -0.000345733 0.00717575 -0.00290362 -0.318903 -0.322545 9.90638
1.829 -0.00338163 0.00990462 0.00875979 -0.111511 0.0450308 9.78317
1.83 -0.00408994 0.0101944 -0.00373917 -0.364488 -0.264734 9.78129
1.831 0.00379637 0.0240701 -0.000989581 -0.256453 -0.143614 9.80075
1.832 0.0105576 0.019309 0.0182682 -0.460325 -0.157088 10.0128
1.833 0.000529775 0.0196546 -0.00521549 -0.323979 -0.169917 10.1445
1.834 -0.00595529 0.0158523 -0.00526236 -0.171017 -0.0755162 9.84415
1.835 0.00919018 0.0176457 0.000921563 -0.176642 -0.241578 10.1117
1.836 0.000122126 -0.00198653 -0.00677367 -0.191028 -0.264589 9.8845
1.837 -0.00240211 -0.00618314 -0.00112223 -0.052306 -0.143353 9.91939
1.838 0.00887053 -0.00482527 -0.0041355 -0.302635 -0.211658 9.90712
1.839 0.0109004 0.0191816 -0.00997217 -0.360363 -0.00594725 9.67319
1.84 -0.00332704 -0.00618467 -0.00158744 -0.0396661 -0.0638022 9.69964
1.841 0.0121329 0.0161107 -0.00632226 -0.491237 0.0805543 10.204
1.842 -0.0113241 -0.0113424 0.00690352 -0.213549 -0.368777 9.72195
1.843 -0.0109252 0.00883468 -0.00572831 -0.366402 -0.158596 9.74856
1.844 -0.000787869 0.00481939 -0.0208585 -0.00829591 -0.257577 9.94524
1.845 0.015025 0.0130132 0.00107307 -0.309643 -0.0373143 10.0346
1.846 1.52163e-05 0.0182823 0.00775882 -0.0564944 -0.194977 9.80448
1.847 0.0195177 0.00561596 -0.00976228 -0.250543 -0.499662 9.92319
1.848 0.00391326 0.000855838 -0.025106 -0.149152 -0.0630229 9.9756
1.849 0.000426783 0.013105 -0.00966174 -0.302011 -0.300051 9.99276
1.85 0.00222124 -0.00195627 0.0207311 -0.10111 -0.176601 9.93286
1.851 -0.014057 0.00808062 0.0243991 -0.203985 -0.349857 9.80306
